File: PeakFitting/xrdData/ware_pzt/PZT for XRD - 59 - Batch 2_15-70 deg_0.004 step_4 sec per step_1.xy
15.0021 9.0
15.0397 7.0
15.0773 8.0
15.1149 5.0
15.1525 10.0
15.1901 3.0
15.2277 7.0
15.2653 3.0
15.3029 7.0
15.3405 5.0
15.3781 11.0
15.4157 5.0
15.4533 13.0
15.4909 8.0
15.5285 7.0
15.5661 7.0
15.6037 10.0
15.6413 5.0
15.6789 3.0
15.7165 8.0
15.7541 5.0
15.7917 8.0
15.8293 9.0
15.8669 9.0
15.9045 3.0
15.9421 9.0
15.9797 7.0
16.0173 3.0
16.0549 5.0
16.0925 5.0
16.1301 10.0
16.1677 8.0
16.2053 2.0
16.2429 10.0
16.2805 15.0
16.3181 11.0
16.3557 8.0
16.3933 9.0
16.4309 4.0
16.4685 7.0
16.5061 4.0
16.5437 4.0
16.5813 1.0
16.6189 2.0
16.6565 9.0
16.6941 5.0
16.7317 8.0
16.7693 9.0
16.8069 7.0
16.8445 2.0
16.8821 7.0
16.9197 10.0
16.9573 5.0
16.9949 4.0
17.0325 9.0
17.0701 2.0
17.1077 7.0
17.1453 9.0
17.1829 5.0
17.2205 10.0
17.2581 4.0
17.2957 8.0
17.3333 10.0
17.3709 7.0
17.4085 8.0
17.4461 16.0
17.4837 11.0
17.5213 7.0
17.5589 7.0
17.5965 8.0
17.6341 8.0
17.6717 3.0
17.7093 7.0
17.7469 4.0
17.7845 4.0
17.8221 4.0
17.8597 8.0
17.8973 9.0
17.9349 9.0
17.9725 9.0
18.0101 8.0
18.0477 16.0
18.0853 7.0
18.1229 5.0
18.1605 4.0
18.1981 3.0
18.2357 4.0
18.2733 3.0
18.3109 9.0
18.3485 4.0
18.3861 5.0
18.4237 3.0
18.4613 2.0
18.4989 9.0
18.5365 10.0
18.5741 9.0
18.6117 9.0
18.6493 8.0
18.6869 4.0
18.7245 5.0
18.7621 7.0
18.7997 5.0
18.8373 5.0
18.8749 4.0
18.9125 8.0
18.9501 3.0
18.9877 5.0
19.0253 5.0
19.0629 2.0
19.1005 10.0
19.1381 9.0
19.1757 10.0
19.2133 7.0
19.2509 5.0
19.2885 2.0
19.3261 8.0
19.3637 8.0
19.4013 7.0
19.4389 4.0
19.4765 9.0
19.5141 7.0
19.5517 8.0
19.5893 4.0
19.6269 4.0
19.6645 8.0
19.7021 4.0
19.7397 5.0
19.7773 4.0
19.8149 3.0
19.8525 5.0
19.8901 3.0
19.9277 3.0
19.9653 7.0
20.0029 4.0
20.0405 8.0
20.0781 2.0
20.1157 3.0
20.1533 9.0
20.1909 7.0
20.2285 5.0
20.2661 1.0
20.3037 4.0
20.3413 4.0
20.3789 3.0
20.4165 4.0
20.4541 4.0
20.4917 3.0
20.5293 5.0
20.5669 5.0
20.6045 5.0
20.6421 9.0
20.6797 2.0
20.7173 8.0
20.7549 2.0
20.7925 7.0
20.8301 9.0
20.8677 3.0
20.9053 5.0
20.9429 2.0
20.9805 9.0
21.0181 8.0
21.0557 4.0
21.0933 11.0
21.1309 4.0
21.1685 8.0
21.2061 2.0
21.2437 8.0
21.2813 7.0
21.3189 11.0
21.3565 21.0
21.3941 22.0
21.4317 33.0
21.4694 23.0
21.507 26.0
21.5446 27.0
21.5822 24.0
21.6198 18.0
21.6574 28.0
21.695 34.0
21.7326 49.0
21.7702 47.0
21.8078 27.0
21.8454 39.0
21.883 41.0
21.9206 26.0
21.9582 31.0
21.9958 26.0
22.0334 24.0
22.071 45.0
22.1086 27.0
22.1462 20.0
22.1838 28.0
22.2214 16.0
22.259 27.0
22.2966 4.0
22.3342 13.0
22.3718 10.0
22.4094 11.0
22.447 8.0
22.4846 7.0
22.5222 8.0
22.5598 2.0
22.5974 2.0
22.635 4.0
22.6726 9.0
22.7102 5.0
22.7478 5.0
22.7854 4.0
22.823 15.0
22.8606 5.0
22.8982 2.0
22.9358 5.0
22.9734 2.0
23.011 5.0
23.0486 5.0
23.0862 5.0
23.1238 2.0
23.1614 1.0
23.199 2.0
23.2366 5.0
23.2742 4.0
23.3118 5.0
23.3494 1.0
23.387 4.0
23.4246 7.0
23.4622 2.0
23.4998 2.0
23.5374 8.0
23.575 5.0
23.6126 4.0
23.6502 7.0
23.6878 2.0
23.7254 3.0
23.763 8.0
23.8006 5.0
23.8382 7.0
23.8758 4.0
23.9134 1.0
23.951 7.0
23.9886 3.0
24.0262 3.0
24.0638 1.0
24.1014 7.0
24.139 3.0
24.1766 2.0
24.2142 2.0
24.2518 2.0
24.2894 8.0
24.327 0.0
24.3646 5.0
24.4022 1.0
24.4398 7.0
24.4774 3.0
24.515 2.0
24.5526 8.0
24.5902 4.0
24.6278 1.0
24.6654 5.0
24.703 1.0
24.7406 2.0
24.7782 4.0
24.8158 7.0
24.8534 4.0
24.891 4.0
24.9286 3.0
24.9662 0.0
25.0038 5.0
25.0414 3.0
25.079 7.0
25.1166 7.0
25.1542 3.0
25.1918 2.0
25.2294 5.0
25.267 3.0
25.3046 2.0
25.3422 8.0
25.3798 1.0
25.4174 7.0
25.455 2.0
25.4926 5.0
25.5302 1.0
25.5678 3.0
25.6054 3.0
25.643 3.0
25.6806 2.0
25.7182 2.0
25.7558 3.0
25.7934 10.0
25.831 4.0
25.8686 3.0
25.9062 5.0
25.9438 2.0
25.9814 3.0
26.019 1.0
26.0566 4.0
26.0942 4.0
26.1318 4.0
26.1694 4.0
26.207 0.0
26.2446 3.0
26.2822 4.0
26.3198 7.0
26.3574 3.0
26.395 1.0
26.4326 7.0
26.4702 3.0
26.5078 3.0
26.5454 3.0
26.583 4.0
26.6206 3.0
26.6582 3.0
26.6958 5.0
26.7334 2.0
26.771 3.0
26.8086 5.0
26.8462 2.0
26.8838 4.0
26.9214 3.0
26.959 5.0
26.9966 8.0
27.0342 2.0
27.0718 4.0
27.1094 4.0
27.147 1.0
27.1846 3.0
27.2222 7.0
27.2598 3.0
27.2974 2.0
27.335 3.0
27.3726 2.0
27.4102 5.0
27.4478 8.0
27.4854 4.0
27.523 4.0
27.5606 4.0
27.5982 7.0
27.6358 7.0
27.6734 5.0
27.711 4.0
27.7486 0.0
27.7862 4.0
27.8238 4.0
27.8614 5.0
27.899 3.0
27.9366 2.0
27.9742 3.0
28.0118 10.0
28.0494 0.0
28.087 4.0
28.1246 3.0
28.1622 1.0
28.1998 4.0
28.2374 1.0
28.275 3.0
28.3126 8.0
28.3502 7.0
28.3878 11.0
28.4254 5.0
28.463 8.0
28.5006 7.0
28.5382 9.0
28.5758 15.0
28.6134 7.0
28.651 16.0
28.6886 10.0
28.7262 17.0
28.7638 18.0
28.8014 15.0
28.839 24.0
28.8766 23.0
28.9142 16.0
28.9518 13.0
28.9894 16.0
29.027 14.0
29.0646 13.0
29.1022 17.0
29.1398 4.0
29.1774 2.0
29.215 8.0
29.2526 5.0
29.2902 1.0
29.3278 5.0
29.3654 4.0
29.403 1.0
29.4406 2.0
29.4782 5.0
29.5158 4.0
29.5534 11.0
29.591 3.0
29.6286 2.0
29.6662 3.0
29.7038 3.0
29.7414 4.0
29.779 4.0
29.8166 3.0
29.8542 9.0
29.8918 8.0
29.9294 5.0
29.967 9.0
30.0046 1.0
30.0422 10.0
30.0798 8.0
30.1174 3.0
30.155 4.0
30.1926 3.0
30.2302 4.0
30.2678 7.0
30.3054 4.0
30.343 7.0
30.3806 4.0
30.4182 5.0
30.4558 9.0
30.4934 5.0
30.531 8.0
30.5686 11.0
30.6062 13.0
30.6438 8.0
30.6814 15.0
30.719 18.0
30.7566 60.0
30.7942 82.0
30.8318 149.0
30.8694 178.0
30.907 252.0
30.9446 299.0
30.9822 330.0
31.0198 278.0
31.0574 289.0
31.095 261.0
31.1326 168.0
31.1702 124.0
31.2078 90.0
31.2454 62.0
31.283 60.0
31.3206 48.0
31.3582 63.0
31.3958 66.0
31.4334 69.0
31.471 72.0
31.5086 56.0
31.5462 48.0
31.5838 47.0
31.6214 28.0
31.659 33.0
31.6966 18.0
31.7342 23.0
31.7718 11.0
31.8094 11.0
31.847 9.0
31.8846 21.0
31.9222 24.0
31.9598 15.0
31.9974 14.0
32.035 11.0
32.0727 15.0
32.1103 7.0
32.1479 7.0
32.1855 4.0
32.2231 5.0
32.2607 4.0
32.2983 5.0
32.3359 4.0
32.3735 7.0
32.4111 2.0
32.4487 3.0
32.4863 7.0
32.5239 5.0
32.5615 4.0
32.5991 2.0
32.6367 4.0
32.6743 3.0
32.7119 4.0
32.7495 4.0
32.7871 1.0
32.8247 1.0
32.8623 3.0
32.8999 3.0
32.9375 2.0
32.9751 2.0
33.0127 1.0
33.0503 2.0
33.0879 0.0
33.1255 4.0
33.1631 1.0
33.2007 2.0
33.2383 2.0
33.2759 3.0
33.3135 3.0
33.3511 1.0
33.3887 4.0
33.4263 0.0
33.4639 4.0
33.5015 2.0
33.5391 2.0
33.5767 3.0
33.6143 1.0
33.6519 0.0
33.6895 1.0
33.7271 4.0
33.7647 4.0
33.8023 2.0
33.8399 2.0
33.8775 2.0
33.9151 5.0
33.9527 1.0
33.9903 3.0
34.0279 2.0
34.0655 4.0
34.1031 3.0
34.1407 3.0
34.1783 2.0
34.2159 1.0
34.2535 2.0
34.2911 2.0
34.3287 0.0
34.3663 2.0
34.4039 2.0
34.4415 5.0
34.4791 3.0
34.5167 1.0
34.5543 4.0
34.5919 5.0
34.6295 5.0
34.6671 4.0
34.7047 0.0
34.7423 2.0
34.7799 2.0
34.8175 3.0
34.8551 3.0
34.8927 0.0
34.9303 1.0
34.9679 5.0
35.0055 3.0
35.0431 1.0
35.0807 2.0
35.1183 1.0
35.1559 4.0
35.1935 3.0
35.2311 3.0
35.2687 1.0
35.3063 2.0
35.3439 0.0
35.3815 4.0
35.4191 3.0
35.4567 1.0
35.4943 3.0
35.5319 3.0
35.5695 1.0
35.6071 0.0
35.6447 4.0
35.6823 3.0
35.7199 2.0
35.7575 2.0
35.7951 2.0
35.8327 2.0
35.8703 3.0
35.9079 2.0
35.9455 1.0
35.9831 3.0
36.0207 5.0
36.0583 2.0
36.0959 4.0
36.1335 3.0
36.1711 4.0
36.2087 4.0
36.2463 3.0
36.2839 4.0
36.3215 4.0
36.3591 4.0
36.3967 1.0
36.4343 1.0
36.4719 1.0
36.5095 1.0
36.5471 2.0
36.5847 4.0
36.6223 5.0
36.6599 2.0
36.6975 2.0
36.7351 1.0
36.7727 3.0
36.8103 1.0
36.8479 3.0
36.8855 5.0
36.9231 3.0
36.9607 3.0
36.9983 4.0
37.0359 1.0
37.0735 1.0
37.1111 1.0
37.1487 4.0
37.1863 5.0
37.2239 3.0
37.2615 2.0
37.2991 3.0
37.3367 1.0
37.3743 3.0
37.4119 0.0
37.4495 1.0
37.4871 1.0
37.5247 9.0
37.5623 2.0
37.5999 5.0
37.6375 0.0
37.6751 4.0
37.7127 4.0
37.7503 4.0
37.7879 2.0
37.8255 7.0
37.8631 8.0
37.9007 9.0
37.9383 11.0
37.9759 9.0
38.0135 11.0
38.0511 17.0
38.0887 14.0
38.1263 13.0
38.1639 37.0
38.2015 22.0
38.2391 29.0
38.2767 48.0
38.3143 55.0
38.3519 46.0
38.3895 52.0
38.4271 53.0
38.4647 40.0
38.5023 30.0
38.5399 24.0
38.5775 20.0
38.6151 11.0
38.6527 7.0
38.6903 13.0
38.7279 7.0
38.7655 7.0
38.8031 5.0
38.8407 3.0
38.8783 8.0
38.9159 4.0
38.9535 2.0
38.9911 5.0
39.0287 5.0
39.0663 2.0
39.1039 4.0
39.1415 4.0
39.1791 1.0
39.2167 2.0
39.2543 3.0
39.2919 1.0
39.3295 4.0
39.3671 2.0
39.4047 0.0
39.4423 1.0
39.4799 0.0
39.5175 3.0
39.5551 1.0
39.5927 1.0
39.6303 0.0
39.6679 4.0
39.7055 1.0
39.7431 1.0
39.7807 2.0
39.8183 2.0
39.8559 5.0
39.8935 3.0
39.9311 3.0
39.9687 5.0
40.0063 1.0
40.0439 1.0
40.0815 3.0
40.1191 2.0
40.1567 3.0
40.1943 4.0
40.2319 2.0
40.2695 3.0
40.3071 2.0
40.3447 0.0
40.3823 2.0
40.4199 3.0
40.4575 5.0
40.4951 3.0
40.5327 3.0
40.5703 3.0
40.6079 3.0
40.6455 0.0
40.6831 2.0
40.7207 3.0
40.7583 3.0
40.7959 5.0
40.8335 1.0
40.8711 2.0
40.9087 1.0
40.9463 5.0
40.9839 0.0
41.0215 2.0
41.0591 1.0
41.0967 1.0
41.1343 4.0
41.1719 0.0
41.2095 2.0
41.2471 5.0
41.2847 1.0
41.3223 1.0
41.3599 2.0
41.3975 3.0
41.4351 3.0
41.4727 0.0
41.5103 0.0
41.5479 1.0
41.5855 1.0
41.6231 2.0
41.6607 1.0
41.6983 1.0
41.7359 2.0
41.7735 3.0
41.8111 0.0
41.8487 3.0
41.8863 0.0
41.9239 1.0
41.9615 1.0
41.9991 4.0
42.0367 2.0
42.0743 2.0
42.1119 1.0
42.1495 3.0
42.1871 4.0
42.2247 3.0
42.2623 2.0
42.2999 2.0
42.3375 2.0
42.3751 5.0
42.4127 2.0
42.4503 2.0
42.4879 2.0
42.5255 1.0
42.5631 3.0
42.6007 1.0
42.6383 4.0
42.676 1.0
42.7136 3.0
42.7512 2.0
42.7888 3.0
42.8264 2.0
42.864 5.0
42.9016 2.0
42.9392 9.0
42.9768 4.0
43.0144 1.0
43.052 4.0
43.0896 2.0
43.1272 2.0
43.1648 1.0
43.2024 3.0
43.24 2.0
43.2776 7.0
43.3152 1.0
43.3528 2.0
43.3904 3.0
43.428 5.0
43.4656 9.0
43.5032 4.0
43.5408 9.0
43.5784 16.0
43.616 20.0
43.6536 14.0
43.6912 14.0
43.7288 16.0
43.7664 10.0
43.804 16.0
43.8416 17.0
43.8792 9.0
43.9168 9.0
43.9544 5.0
43.992 10.0
44.0296 8.0
44.0672 13.0
44.1048 14.0
44.1424 22.0
44.18 26.0
44.2176 21.0
44.2552 29.0
44.2928 34.0
44.3304 33.0
44.368 36.0
44.4056 42.0
44.4432 40.0
44.4808 30.0
44.5184 28.0
44.556 13.0
44.5936 26.0
44.6312 17.0
44.6688 14.0
44.7064 22.0
44.744 15.0
44.7816 16.0
44.8192 13.0
44.8568 15.0
44.8944 35.0
44.932 22.0
44.9696 30.0
45.0072 27.0
45.0448 24.0
45.0824 18.0
45.12 22.0
45.1576 21.0
45.1952 24.0
45.2328 15.0
45.2704 11.0
45.308 23.0
45.3456 11.0
45.3832 17.0
45.4208 10.0
45.4584 10.0
45.496 5.0
45.5336 11.0
45.5712 11.0
45.6088 8.0
45.6464 4.0
45.684 4.0
45.7216 7.0
45.7592 4.0
45.7968 1.0
45.8344 4.0
45.872 5.0
45.9096 3.0
45.9472 3.0
45.9848 2.0
46.0224 3.0
46.06 3.0
46.0976 3.0
46.1352 5.0
46.1728 2.0
46.2104 5.0
46.248 4.0
46.2856 7.0
46.3232 9.0
46.3608 0.0
46.3984 4.0
46.436 4.0
46.4736 4.0
46.5112 3.0
46.5488 4.0
46.5864 2.0
46.624 4.0
46.6616 4.0
46.6992 2.0
46.7368 5.0
46.7744 2.0
46.812 3.0
46.8496 3.0
46.8872 5.0
46.9248 3.0
46.9624 2.0
47 1.0
47.0376 3.0
47.0752 3.0
47.1128 1.0
47.1504 4.0
47.188 4.0
47.2256 4.0
47.2632 7.0
47.3008 3.0
47.3384 2.0
47.376 3.0
47.4136 1.0
47.4512 1.0
47.4888 3.0
47.5264 2.0
47.564 1.0
47.6016 2.0
47.6392 1.0
47.6768 3.0
47.7144 3.0
47.752 3.0
47.7896 5.0
47.8272 3.0
47.8648 4.0
47.9024 4.0
47.94 3.0
47.9776 4.0
48.0152 3.0
48.0528 2.0
48.0904 3.0
48.128 3.0
48.1656 2.0
48.2032 3.0
48.2408 4.0
48.2784 4.0
48.316 0.0
48.3536 5.0
48.3912 3.0
48.4288 5.0
48.4664 7.0
48.504 7.0
48.5416 4.0
48.5792 7.0
48.6168 4.0
48.6544 5.0
48.692 3.0
48.7296 5.0
48.7672 8.0
48.8048 10.0
48.8424 8.0
48.88 15.0
48.9176 7.0
48.9552 8.0
48.9928 5.0
49.0304 7.0
49.068 13.0
49.1056 3.0
49.1432 5.0
49.1808 8.0
49.2184 3.0
49.256 13.0
49.2936 5.0
49.3312 9.0
49.3688 11.0
49.4064 21.0
49.444 17.0
49.4816 21.0
49.5192 21.0
49.5568 15.0
49.5944 18.0
49.632 26.0
49.6696 17.0
49.7072 24.0
49.7448 20.0
49.7824 18.0
49.82 16.0
49.8576 23.0
49.8952 16.0
49.9328 16.0
49.9704 21.0
50.008 13.0
50.0456 13.0
50.0832 9.0
50.1208 13.0
50.1584 11.0
50.196 14.0
50.2336 14.0
50.2712 11.0
50.3088 11.0
50.3464 8.0
50.384 10.0
50.4216 17.0
50.4592 18.0
50.4968 9.0
50.5344 4.0
50.572 7.0
50.6096 9.0
50.6472 13.0
50.6848 9.0
50.7224 8.0
50.76 8.0
50.7976 8.0
50.8352 7.0
50.8728 9.0
50.9104 4.0
50.948 5.0
50.9856 8.0
51.0232 1.0
51.0608 3.0
51.0984 3.0
51.136 2.0
51.1736 3.0
51.2112 4.0
51.2488 9.0
51.2864 2.0
51.324 5.0
51.3616 4.0
51.3992 2.0
51.4368 2.0
51.4744 2.0
51.512 1.0
51.5496 3.0
51.5872 3.0
51.6248 2.0
51.6624 8.0
51.7 3.0
51.7376 3.0
51.7752 7.0
51.8128 8.0
51.8504 2.0
51.888 5.0
51.9256 2.0
51.9632 4.0
52.0008 2.0
52.0384 0.0
52.076 2.0
52.1136 4.0
52.1512 9.0
52.1888 1.0
52.2264 9.0
52.264 2.0
52.3016 7.0
52.3392 2.0
52.3768 4.0
52.4144 5.0
52.452 3.0
52.4896 3.0
52.5272 2.0
52.5648 4.0
52.6024 2.0
52.64 3.0
52.6776 9.0
52.7152 5.0
52.7528 1.0
52.7904 4.0
52.828 5.0
52.8656 1.0
52.9032 3.0
52.9408 4.0
52.9784 3.0
53.016 4.0
53.0536 3.0
53.0912 2.0
53.1288 5.0
53.1664 3.0
53.204 1.0
53.2417 3.0
53.2793 8.0
53.3169 2.0
53.3545 2.0
53.3921 4.0
53.4297 4.0
53.4673 2.0
53.5049 2.0
53.5425 3.0
53.5801 7.0
53.6177 8.0
53.6553 1.0
53.6929 3.0
53.7305 4.0
53.7681 1.0
53.8057 2.0
53.8433 2.0
53.8809 3.0
53.9185 2.0
53.9561 1.0
53.9937 2.0
54.0313 2.0
54.0689 3.0
54.1065 0.0
54.1441 1.0
54.1817 4.0
54.2193 1.0
54.2569 0.0
54.2945 3.0
54.3321 8.0
54.3697 3.0
54.4073 9.0
54.4449 7.0
54.4825 13.0
54.5201 11.0
54.5577 20.0
54.5953 15.0
54.6329 27.0
54.6705 29.0
54.7081 40.0
54.7457 30.0
54.7833 47.0
54.8209 53.0
54.8585 63.0
54.8961 53.0
54.9337 52.0
54.9713 59.0
55.0089 56.0
55.0465 60.0
55.0841 56.0
55.1217 59.0
55.1593 40.0
55.1969 58.0
55.2345 54.0
55.2721 40.0
55.3097 39.0
55.3473 30.0
55.3849 35.0
55.4225 34.0
55.4601 34.0
55.4977 41.0
55.5353 47.0
55.5729 28.0
55.6105 43.0
55.6481 46.0
55.6857 33.0
55.7233 47.0
55.7609 35.0
55.7985 37.0
55.8361 29.0
55.8737 30.0
55.9113 30.0
55.9489 17.0
55.9865 31.0
56.0241 28.0
56.0617 20.0
56.0993 22.0
56.1369 10.0
56.1745 9.0
56.2121 8.0
56.2497 8.0
56.2873 7.0
56.3249 8.0
56.3625 8.0
56.4001 7.0
56.4377 3.0
56.4753 2.0
56.5129 7.0
56.5505 4.0
56.5881 4.0
56.6257 4.0
56.6633 5.0
56.7009 3.0
56.7385 3.0
56.7761 3.0
56.8137 3.0
56.8513 5.0
56.8889 1.0
56.9265 3.0
56.9641 5.0
57.0017 2.0
57.0393 2.0
57.0769 2.0
57.1145 5.0
57.1521 4.0
57.1897 0.0
57.2273 1.0
57.2649 0.0
57.3025 4.0
57.3401 3.0
57.3777 4.0
57.4153 3.0
57.4529 3.0
57.4905 1.0
57.5281 2.0
57.5657 1.0
57.6033 2.0
57.6409 4.0
57.6785 2.0
57.7161 2.0
57.7537 2.0
57.7913 3.0
57.8289 1.0
57.8665 1.0
57.9041 5.0
57.9417 2.0
57.9793 3.0
58.0169 2.0
58.0545 1.0
58.0921 4.0
58.1297 5.0
58.1673 5.0
58.2049 7.0
58.2425 3.0
58.2801 1.0
58.3177 4.0
58.3553 4.0
58.3929 4.0
58.4305 3.0
58.4681 1.0
58.5057 3.0
58.5433 4.0
58.5809 1.0
58.6185 3.0
58.6561 3.0
58.6937 4.0
58.7313 3.0
58.7689 3.0
58.8065 4.0
58.8441 2.0
58.8817 2.0
58.9193 4.0
58.9569 5.0
58.9945 1.0
59.0321 2.0
59.0697 3.0
59.1073 8.0
59.1449 5.0
59.1825 3.0
59.2201 3.0
59.2577 1.0
59.2953 5.0
59.3329 5.0
59.3705 2.0
59.4081 2.0
59.4457 5.0
59.4833 3.0
59.5209 1.0
59.5585 4.0
59.5961 1.0
59.6337 3.0
59.6713 1.0
59.7089 4.0
59.7465 3.0
59.7841 4.0
59.8217 1.0
59.8593 4.0
59.8969 0.0
59.9345 8.0
59.9721 5.0
60.0097 3.0
60.0473 3.0
60.0849 1.0
60.1225 5.0
60.1601 5.0
60.1977 4.0
60.2353 2.0
60.2729 4.0
60.3105 2.0
60.3481 1.0
60.3857 1.0
60.4233 3.0
60.4609 2.0
60.4985 5.0
60.5361 3.0
60.5737 3.0
60.6113 5.0
60.6489 4.0
60.6865 7.0
60.7241 4.0
60.7617 1.0
60.7993 1.0
60.8369 4.0
60.8745 2.0
60.9121 2.0
60.9497 1.0
60.9873 2.0
61.0249 2.0
61.0625 3.0
61.1001 1.0
61.1377 1.0
61.1753 5.0
61.2129 1.0
61.2505 4.0
61.2881 2.0
61.3257 2.0
61.3633 7.0
61.4009 4.0
61.4385 2.0
61.4761 7.0
61.5137 3.0
61.5513 5.0
61.5889 2.0
61.6265 1.0
61.6641 2.0
61.7017 2.0
61.7393 2.0
61.7769 2.0
61.8145 2.0
61.8521 5.0
61.8897 2.0
61.9273 4.0
61.9649 2.0
62.0025 5.0
62.0401 2.0
62.0777 2.0
62.1153 0.0
62.1529 1.0
62.1905 4.0
62.2281 2.0
62.2657 1.0
62.3033 3.0
62.3409 0.0
62.3785 3.0
62.4161 0.0
62.4537 1.0
62.4913 3.0
62.5289 4.0
62.5665 1.0
62.6041 1.0
62.6417 0.0
62.6793 0.0
62.7169 3.0
62.7545 7.0
62.7921 1.0
62.8297 2.0
62.8673 0.0
62.9049 4.0
62.9425 1.0
62.9801 4.0
63.0177 1.0
63.0553 1.0
63.0929 4.0
63.1305 9.0
63.1681 5.0
63.2057 5.0
63.2433 1.0
63.2809 2.0
63.3185 3.0
63.3561 3.0
63.3937 1.0
63.4313 2.0
63.4689 5.0
63.5065 5.0
63.5441 3.0
63.5817 3.0
63.6193 2.0
63.6569 8.0
63.6945 5.0
63.7321 4.0
63.7697 4.0
63.8073 3.0
63.845 2.0
63.8826 4.0
63.9202 5.0
63.9578 5.0
63.9954 2.0
64.033 5.0
64.0706 3.0
64.1082 9.0
64.1458 5.0
64.1834 4.0
64.221 8.0
64.2586 11.0
64.2962 20.0
64.3338 26.0
64.3714 16.0
64.409 21.0
64.4466 27.0
64.4842 22.0
64.5218 26.0
64.5594 26.0
64.597 28.0
64.6346 27.0
64.6722 26.0
64.7098 18.0
64.7474 30.0
64.785 34.0
64.8226 14.0
64.8602 30.0
64.8978 15.0
64.9354 10.0
64.973 14.0
65.0106 18.0
65.0482 15.0
65.0858 8.0
65.1234 13.0
65.161 4.0
65.1986 7.0
65.2362 5.0
65.2738 11.0
65.3114 9.0
65.349 5.0
65.3866 10.0
65.4242 8.0
65.4618 15.0
65.4994 11.0
65.537 10.0
65.5746 9.0
65.6122 14.0
65.6498 7.0
65.6874 9.0
65.725 5.0
65.7626 7.0
65.8002 2.0
65.8378 5.0
65.8754 5.0
65.913 7.0
65.9506 3.0
65.9882 2.0
66.0258 3.0
66.0634 8.0
66.101 2.0
66.1386 4.0
66.1762 9.0
66.2138 1.0
66.2514 3.0
66.289 9.0
66.3266 1.0
66.3642 4.0
66.4018 7.0
66.4394 3.0
66.477 7.0
66.5146 0.0
66.5522 4.0
66.5898 5.0
66.6274 4.0
66.665 4.0
66.7026 10.0
66.7402 2.0
66.7778 5.0
66.8154 3.0
66.853 2.0
66.8906 5.0
66.9282 4.0
66.9658 4.0
67.0034 7.0
67.041 2.0
67.0786 1.0
67.1162 2.0
67.1538 2.0
67.1914 3.0
67.229 2.0
67.2666 2.0
67.3042 2.0
67.3418 3.0
67.3794 2.0
67.417 1.0
67.4546 1.0
67.4922 1.0
67.5298 1.0
67.5674 3.0
67.605 2.0
67.6426 4.0
67.6802 4.0
67.7178 8.0
67.7554 4.0
67.793 4.0
67.8306 1.0
67.8682 3.0
67.9058 1.0
67.9434 7.0
67.981 9.0
68.0186 5.0
68.0562 3.0
68.0938 7.0
68.1314 1.0
68.169 5.0
68.2066 3.0
68.2442 7.0
68.2818 1.0
68.3194 5.0
68.357 9.0
68.3946 8.0
68.4322 5.0
68.4698 7.0
68.5074 7.0
68.545 8.0
68.5826 5.0
68.6202 16.0
68.6578 8.0
68.6954 17.0
68.733 7.0
68.7706 8.0
68.8082 4.0
68.8458 5.0
68.8834 10.0
68.921 8.0
68.9586 16.0
68.9962 9.0
69.0338 16.0
69.0714 11.0
69.109 5.0
69.1466 17.0
69.1842 13.0
69.2218 11.0
69.2594 14.0
69.297 15.0
69.3346 14.0
69.3722 5.0
69.4098 8.0
69.4474 16.0
69.485 10.0
69.5226 4.0
69.5602 11.0
69.5978 8.0
69.6354 3.0
69.673 4.0
69.7106 3.0
69.7482 7.0
69.7858 3.0
69.8234 8.0
69.861 10.0
69.8986 1.0
69.9362 4.0
69.9738 9.0
69.9947 1.0