File: PeakFitting/xrdData/jacobson_raman/C3_02124_532nm_5sec_5per_50x.txt
#Wave		#Intensity
1818.91	2342.22
1817.34	2468.36
1815.78	2469.48
1814.21	2413.15
1812.64	2328.12
1811.07	2327.67
1809.51	2335.2
1807.94	2404.92
1806.37	2369.38
1804.8	2364.14
1803.23	2320.65
1801.67	2377.57
1800.1	2413.76
1798.53	2478.6
1796.96	2454.24
1795.39	2386.88
1793.82	2311.6
1792.25	2368.45
1790.68	2425.28
1789.1	2434.36
1787.53	2392.52
1785.96	2398.42
1784.39	2380.46
1782.82	2402.26
1781.24	2446.29
1779.67	2491.9
1778.1	2442.16
1776.52	2368.61
1774.95	2425.32
1773.38	2482.01
1771.8	2579.96
1770.22	2477.87
1768.65	2459.92
1767.07	2372.17
1765.5	2389.15
1763.92	2515.57
1762.35	2510.32
1760.77	2512.99
1759.19	2366.66
1757.62	2439.09
1756.04	2440.2
1754.46	2547.44
1752.88	2505.75
1751.3	2388.07
1749.72	2433.51
1748.14	2426.7
1746.56	2388.23
1744.98	2493.77
1743.4	2498.02
1741.82	2380.48
1740.24	2466.98
1738.66	2523.4
1737.08	2475.48
1735.5	2580.87
1733.92	2512.41
1732.33	2450.29
1730.75	2452.96
1729.17	2521.95
1727.58	2502.5
1726	2525.67
1724.42	2477.82
1722.83	2458.39
1721.25	2379.01
1719.66	2492.09
1718.08	2587.79
1716.49	2497.39
1714.9	2389.7
1713.32	2468.02
1711.73	2502.18
1710.14	2544.21
1708.56	2611.42
1706.97	2524.28
1705.38	2523.77
1703.79	2439.83
1702.21	2530.61
1700.62	2534.82
1699.03	2515.42
1697.44	2467.73
1695.85	2533.27
1694.26	2488.73
1692.67	2579.39
1691.08	2605.58
1689.49	2565.77
1687.89	2483.56
1686.3	2527.02
1684.71	2521.79
1683.12	2554.25
1681.53	2625.92
1679.93	2534.37
1678.34	2472.66
1676.74	2572.54
1675.15	2576.72
1673.56	2605.98
1671.96	2599.17
1670.37	2510.86
1668.77	2447.66
1667.18	2570.93
1665.58	2637.75
1663.98	2681.05
1662.39	2661.71
1660.79	2567.24
1659.19	2574.53
1657.59	2481.68
1656	2585.98
1654.4	2624.54
1652.8	2536.43
1651.2	2517.14
1649.6	2594.77
1648	2628.61
1646.4	2707.75
1644.8	2658.76
1643.2	2672.27
1641.6	2556.16
1640	2672.71
1638.4	2678.4
1636.79	2724.65
1635.19	2607.07
1633.59	2604.97
1631.98	2649.65
1630.38	2722.37
1628.78	2718.69
1627.17	2621.49
1625.57	2655.22
1623.96	2592.34
1622.36	2666.56
1620.75	2751.65
1619.15	2704.37
1617.54	2621.3
1615.94	2598.96
1614.33	2701.1
1612.72	2655.42
1611.12	2665.75
1609.51	2727.39
1607.9	2544.92
1606.29	2639.19
1604.68	2686.81
1603.07	2610.11
1601.46	2643.73
1599.85	2711.51
1598.24	2617.77
1596.63	2654.48
1595.02	2579.42
1593.41	2768.17
1591.8	2724.15
1590.19	2652.23
1588.58	2740.05
1586.96	2554.98
1585.35	2656.74
1583.74	2784.8
1582.12	2666.45
1580.51	2593.08
1578.89	2680.8
1577.28	2585.78
1575.67	2723.01
1574.05	2719.33
1572.44	2686.26
1570.82	2594.41
1569.2	2709.86
1567.59	2686.08
1565.97	2642.22
1564.35	2692.66
1562.73	2608.63
1561.12	2668.33
1559.5	2652.32
1557.88	2758.31
1556.26	2762.35
1554.64	2662.96
1553.02	2631.52
1551.4	2570.78
1549.78	2707.53
1548.16	2794.87
1546.54	2748
1544.92	2705.78
1543.29	2638.92
1541.67	2721.57
1540.05	2722.53
1538.43	2729.64
1536.8	2692.09
1535.18	2706.91
1533.55	2657.07
1531.93	2714.98
1530.31	2759.02
1528.68	2686.11
1527.06	2694.76
1525.43	2726.47
1523.8	2652.09
1522.18	2719.15
1520.55	2780.03
1518.92	2664.2
1517.3	2652.87
1515.67	2612.36
1514.04	2677.82
1512.41	2709.48
1510.78	2621.41
1509.15	2686.82
1507.52	2552.77
1505.89	2653.45
1504.26	2770.95
1502.63	2686.02
1501	2601.14
1499.37	2595.97
1497.74	2604.6
1496.11	2679.09
1494.47	2701.48
1492.84	2679.46
1491.21	2606.93
1489.57	2591.06
1487.94	2608.85
1486.31	2674.06
1484.67	2771.37
1483.04	2692.78
1481.4	2550.01
1479.77	2622.82
1478.13	2684.9
1476.49	2724.04
1474.86	2735.66
1473.22	2605.26
1471.58	2589.42
1469.95	2666.71
1468.31	2675.28
1466.67	2685.37
1465.03	2661.91
1463.39	2540.84
1461.75	2657.69
1460.11	2783.64
1458.47	2662.62
1456.83	2651.37
1455.19	2542.63
1453.55	2676.1
1451.91	2678.56
1450.26	2706.9
1448.62	2707.83
1446.98	2623.54
1445.34	2651.87
1443.69	2572.19
1442.05	2726.74
1440.4	2723.1
1438.76	2632.81
1437.11	2559.29
1435.47	2675.72
1433.82	2658.42
1432.18	2802.12
1430.53	2752.91
1428.88	2664.26
1427.24	2663.67
1425.59	2699.5
1423.94	2701.94
1422.29	2734.71
1420.64	2762.92
1419	2644.06
1417.35	2658.63
1415.7	2676.23
1414.05	2674.12
1412.4	2741.7
1410.74	2650.23
1409.09	2657.21
1407.44	2745.93
1405.79	2724.14
1404.14	2744.72
1402.48	2651.84
1400.83	2651.25
1399.18	2629.49
1397.53	2712.06
1395.87	2726.57
1394.22	2694.23
1392.56	2627.17
1390.91	2688.51
1389.25	2653.18
1387.6	2746.2
1385.94	2656.54
1384.28	2646.89
1382.62	2604.06
1380.97	2601.97
1379.31	2675.29
1377.65	2686.76
1375.99	2677.12
1374.33	2676.52
1372.68	2715.11
1371.02	2722.03
1369.36	2759.08
1367.7	2666.62
1366.04	2640.44
1364.37	2739.18
1362.71	2621.2
1361.05	2670.27
1359.39	2707.27
1357.72	2637.5
1356.06	2639.92
1354.4	2708.47
1352.74	2716.89
1351.07	2723.79
1349.41	2736.7
1347.74	2650.5
1346.08	2690.44
1344.41	2731.87
1342.75	2717.76
1341.08	2730.66
1339.41	2772.05
1337.75	2694.95
1336.08	2718.33
1334.41	2714.73
1332.74	2787.56
1331.07	2688.05
1329.41	2681.46
1327.74	2763.23
1326.07	2795.55
1324.4	2726.07
1322.73	2728.45
1321.05	2702.4
1319.38	2689.83
1317.71	2790.94
1316.04	2782.84
1314.37	2768.76
1312.7	2715.83
1311.02	2760.05
1309.35	2772.88
1307.68	2926.11
1306	2867.21
1304.33	2760.57
1302.65	2668.9
1300.98	2801.12
1299.3	2782.59
1297.62	2844.61
1295.95	2778.36
1294.27	2716.61
1292.6	2800.97
1290.92	2745.2
1289.24	2921.89
1287.56	2769.29
1285.88	2793.99
1284.21	2704.02
1282.53	2730.21
1280.85	2906.71
1279.17	2888.2
1277.48	2807.22
1275.8	2803.62
1274.12	2846.11
1272.44	2921.29
1270.76	2935.5
1269.08	2784.76
1267.39	2720.25
1265.71	2820.64
1264.03	2964.05
1262.34	2944.09
1260.66	2852.88
1258.97	2809.21
1257.29	2853.08
1255.6	2917.71
1253.92	2971.93
1252.23	2923.81
1250.54	2816.43
1248.86	2906.2
1247.17	2958.88
1245.48	3045.62
1243.79	3046.41
1242.11	2913.95
1240.42	2991.75
1238.73	3025.12
1237.04	3133.93
1235.35	3099.21
1233.66	3002.37
1231.97	3049.02
1230.28	3060.16
1228.59	3223.53
1226.89	3236.1
1225.2	3182.19
1223.51	3112.05
1221.82	3130.55
1220.12	3245
1218.43	3307.74
1216.73	3264.2
1215.04	3220.68
1213.35	3245.03
1211.65	3335.73
1209.96	3264.21
1208.26	3410.87
1206.56	3418.95
1204.87	3329.77
1203.17	3398.26
1201.47	3510.89
1199.77	3573.41
1198.07	3541.69
1196.38	3437.87
1194.68	3491.54
1192.98	3617.26
1191.28	3626.74
1189.58	3558.28
1187.88	3654.5
1186.18	3619.88
1184.47	3714.57
1182.77	3829.79
1181.07	3802.48
1179.37	3732.61
1177.66	3771.41
1175.96	3871.83
1174.26	3945.79
1172.55	4013.85
1170.85	3948.41
1169.14	3884.47
1167.44	3917.31
1165.73	4083.52
1164.03	4079.66
1162.32	4050.91
1160.61	3956.25
1158.91	4065.19
1157.2	4111.12
1155.49	4212.65
1153.78	4159.02
1152.07	4197.58
1150.37	4143.98
1148.66	4319.99
1146.95	4317.55
1145.24	4354.58
1143.53	4336.06
1141.81	4324.86
1140.1	4394
1138.39	4480.63
1136.68	4472.32
1134.96	4379.34
1133.25	4441.11
1131.54	4546.62
1129.83	4656.46
1128.11	4621.86
1126.4	4521.66
1124.68	4491.48
1122.97	4681.4
1121.25	4759.02
1119.54	4775.43
1117.82	4834.07
1116.1	4693.18
1114.38	4649.9
1112.67	4886.1
1110.95	4867.53
1109.23	4875.16
1107.51	4810.06
1105.79	4856.95
1104.07	4915.46
1102.35	4915.81
1100.63	4871.1
1098.91	4755.22
1097.19	4880.51
1095.47	4936.04
1093.75	5001.71
1092.03	4856.88
1090.3	4778.86
1088.58	4837.27
1086.86	4921.76
1085.13	5023.61
1083.41	4923.88
1081.68	4772.01
1079.96	4852.08
1078.23	4875.62
1076.51	4986.06
1074.78	4922.65
1073.05	4786.88
1071.33	4749.6
1069.6	4673.27
1067.87	4842.95
1066.14	4714.55
1064.41	4644.06
1062.69	4616.98
1060.96	4585.58
1059.23	4701.61
1057.5	4703.43
1055.77	4679.25
1054.04	4432.66
1052.3	4480.75
1050.57	4660.19
1048.84	4602.85
1047.11	4483.47
1045.38	4442.06
1043.64	4304.03
1041.91	4441.49
1040.17	4509.69
1038.44	4399.12
1036.71	4343.36
1034.97	4273.22
1033.23	4267.93
1031.5	4422.49
1029.76	4310.63
1028.03	4180.1
1026.29	4242.47
1024.55	4257.34
1022.81	4266.44
1021.07	4193.57
1019.33	4230
1017.6	4053.67
1015.86	4061.37
1014.12	4145.22
1012.38	4220.42
1010.63	4136.16
1008.89	4056.25
1007.15	4058.2
1005.41	4071.63
1003.67	4145.32
1001.93	4031.05
1000.18	4031.57
998.439	4092.32
996.695	3976.7
994.951	4011.63
993.205	3810.11
991.461	3814.98
989.715	3957.34
987.969	3975.06
986.223	3878.23
984.477	3798.63
982.729	3853.58
980.982	3742.54
979.234	3853.26
977.486	3876.69
975.736	3782.89
973.988	3710.56
972.238	3621.12
970.488	3676.01
968.738	3739.46
966.988	3652.92
965.236	3613.55
963.484	3659.83
961.734	3594.78
959.98	3671.01
958.229	3544.65
956.475	3526.73
954.723	3487.43
952.969	3508.02
951.215	3458.77
949.459	3539.2
947.705	3400.22
945.949	3474.93
944.193	3528.24
942.438	3574.42
940.68	3495.33
938.924	3532.95
937.166	3473.82
935.408	3460.24
933.65	3566.09
931.891	3441.6
930.133	3464.98
928.373	3407.36
926.613	3474.77
924.854	3464.04
923.092	3538.51
921.33	3361.67
919.57	3369.42
917.809	3381.43
916.045	3521.1
914.283	3411.09
912.52	3398.97
910.756	3364.17
908.992	3425.77
907.229	3453.33
905.463	3397.29
903.699	3430.51
901.934	3398.58
900.168	3437.45
898.4	3459.31
896.635	3444.37
894.867	3330.41
893.1	3357.94
891.332	3324.65
889.564	3398.82
887.795	3475.79
886.025	3278.57
884.256	3225.55
882.486	3350.53
880.717	3417.55
878.945	3363.12
877.174	3294.6
875.402	3279.73
873.631	3341.07
871.859	3393.91
870.086	3259.16
868.312	3272.52
866.539	3216.79
864.766	3303.44
862.992	3312.55
861.217	3249.81
859.441	3219.5
857.666	3180.74
855.891	3216.62
854.113	3201.81
852.338	3293.95
850.561	3241.15
848.783	3170.09
847.004	3118.74
845.227	3257.21
843.447	3253.65
841.668	3085.7
839.889	3099.04
838.109	3265.47
836.328	3235.24
834.547	3139.04
832.766	3104.63
830.984	3178.3
829.203	3138.29
827.42	3270.82
825.637	3204.16
823.854	3126.33
822.07	3073.75
820.287	3211.78
818.502	3286.7
816.717	3201.91
814.932	3161.97
813.146	3180.84
811.359	3135.33
809.574	3196.18
807.787	3178.66
806	3175.14
804.211	3193.99
802.424	3177.88
800.635	3200.92
798.846	3201.58
797.057	2982.9
795.268	3116.31
793.477	3133.75
791.686	3223.79
789.895	3146.28
788.104	3077.18
786.312	3102.98
784.52	3079.95
782.727	3108.53
780.934	3077.15
779.141	3022.08
777.346	3053.44
775.553	3121.01
773.758	3123.08
771.963	3090.34
770.166	3029.76
768.371	3080.57
766.574	3024.19
764.777	3154.29
762.98	3070.11
761.184	2988.74
759.385	3043.67
757.586	3115.26
755.787	3118.71
753.988	3052.69
752.189	3000.59
750.389	2999.91
748.588	3126.96
746.787	3117.91
744.986	3140.79
743.184	3047.1
741.383	3067.21
739.58	3134.47
737.777	3114.34
735.973	3001.33
734.17	3029.75
732.365	3135.75
730.561	3180.74
728.756	3198.02
726.951	3236.06
725.145	3074.72
723.338	3134.91
721.531	3217.22
719.725	3249.68
717.916	3112.01
716.109	3156.92
714.301	3329.01
712.492	3292.3
710.684	3243.18
708.873	3254.87
707.062	3180.92
705.252	3283.75
703.441	3339.6
701.631	3290.52
699.818	3275.96
698.006	3355.22
696.193	3399.97
694.381	3348.16
692.568	3398.4
690.754	3302.51
688.939	3205.29
687.125	3339.56
685.311	3418.68
683.494	3380.71
681.68	3323.49
679.863	3335.11
678.047	3429.29
676.229	3413.36
674.412	3419.45
672.594	3300.4
670.775	3393.13
668.957	3459.69
667.137	3555.09
665.318	3508.93
663.498	3449.05
661.678	3446.88
659.855	3557.3
658.035	3601.77
656.213	3568
654.391	3535.62
652.568	3533.43
650.744	3627.23
648.922	3653.82
647.098	3648.86
645.273	3646.64
643.449	3710.19
641.623	3866.85
639.799	3945.39
637.973	3825.36
636.146	3825.84
634.318	3831.79
632.492	4089.49
630.664	4043.4
628.836	4078.02
627.008	4182.35
625.178	4301.67
623.35	4371.73
621.52	4344.76
619.689	4391.56
617.859	4535.29
616.027	4594.31
614.195	4800.72
612.363	4776.41
610.531	4794.4
608.699	4918.78
606.865	5074.46
605.031	5186.44
603.197	5232.94
601.363	5219.46
599.529	5389.92
597.693	5590.26
595.857	5733.31
594.021	5817.75
592.186	5838.17
590.348	6163.42
588.51	6257.22
586.672	6344.18
584.834	6450.13
582.996	6560.11
581.156	6825
579.316	6993.28
577.477	7242.99
575.637	7166.59
573.795	7315.66
571.953	7533.89
570.111	7644.79
568.27	7900.85
566.428	7964.12
564.584	8036.86
562.74	8493.35
560.896	8655.41
559.053	8727.93
557.207	8667.62
555.361	8797
553.516	9013.02
551.67	9025.8
549.824	8923.49
547.977	8588.42
546.129	8775.86
544.281	8923.97
542.434	8754.15
540.584	8611.46
538.736	8306.59
536.887	8516.85
535.035	8601.33
533.186	8239.93
531.334	7978.65
529.482	7844.44
527.631	7869.59
525.779	8010.81
523.926	7687.76
522.074	7439.06
520.221	7460.23
518.365	7494.88
516.512	7382.56
514.656	7016.9
512.803	6821.2
510.945	6903.11
509.09	7025.4
507.232	6796.17
505.377	6538.77
503.52	6329.95
501.66	6415.92
499.803	6294.67
497.943	6127.74
496.084	5929.97
494.225	5826.39
492.365	5877.43
490.504	5775.26
488.645	5686.57
486.781	5491.82
484.92	5554.97
483.059	5575.12
481.195	5435.56
479.332	5282.65
477.469	5137.85
475.604	5172.84
473.74	5201.11
471.875	5165.02
470.01	5012.35
468.145	4881.19
466.277	4959.06
464.41	4949.84
462.543	4743.8
460.676	4674.4
458.809	4650.54
456.939	4634.71
455.07	4741.95
453.201	4572.32
451.332	4408.11
449.461	4488.59
447.59	4524.94
445.719	4620.05
443.848	4413.24
441.975	4250.6
440.104	4285.63
438.23	4339.33
436.355	4283.58
434.482	4115.78
432.607	4062.78
430.732	4181.81
428.857	4303.46
426.982	4177.14
425.105	4034.89
423.23	4041.91
421.354	4188.78
419.475	4290.3
417.598	4205.4
415.719	4149.82
413.84	4240.63
411.961	4343.37
410.08	4323.7
408.201	4224.26
406.32	4261.79
404.439	4372.4
402.557	4534.77
400.676	4313.17
398.793	4220.49
396.91	4163.7
395.027	4254.29
393.143	4182.92
391.258	4184.56
389.373	4029.68
387.488	3979.64
385.604	4172.24
383.717	4005.54
381.83	3997.94
379.943	3869.79
378.055	3957.59
376.168	4005.62
374.279	3958.31
372.391	3832.93
370.5	3780.4
368.611	3958.06
366.721	3843.36
364.83	3745.9
362.939	3733.08
361.047	3765.21
359.154	3806.57
357.262	3829.42
355.369	3629.07
353.477	3626.86
351.582	3717.05
349.688	3778.16
347.793	3731.06
345.896	3768.4
344.002	3680.44
342.105	3761.27
340.209	3806.48
338.311	3676.41
336.414	3618.86
334.516	3707.53
332.617	3701.35
330.717	3758.36
328.818	3635.04
326.918	3567.04
325.018	3708.22
323.117	3711.25
321.215	3709.02
319.312	3673.93
317.41	3603.37
315.508	3595.91
313.604	3681.71
311.701	3586.25
309.797	3473.77
307.891	3613.35
305.986	3541.59
304.08	3557.77
302.174	3441.47
300.268	3403.9
298.361	3593.13
296.453	3564.72
294.545	3448.53
292.637	3439.81
290.727	3441.57
288.818	3617.46
286.908	3551.11
284.998	3484.8
283.086	3490.47
281.176	3513.14
279.264	3577.64
277.352	3550.6
275.438	3509.19
273.525	3360.67
271.611	3466.94
269.697	3518.31
267.781	3333.33
265.867	3444.75
263.951	3433.44
262.035	3523.91
260.119	3414.76
258.201	3399.55
256.283	3267.03
254.365	3434.33
252.447	3480.38
250.527	3420.88
248.607	3348.38
246.688	3460.81
244.768	3461.24
242.846	3487.69
240.926	3458.18
239.002	3275.21
237.08	3395.31
235.158	3462.05
233.234	3297.41
231.311	3225.1
229.385	3267.15
227.461	3391
225.535	3368.06
223.609	3262.06
221.684	3218.4
219.756	3218.88
217.828	3259.56
215.9	3297.63
213.973	3276.05
212.043	3227.25
210.113	3243.27
208.184	3261.87
206.254	3200.17
204.322	3165.68
202.391	3272.31
200.459	3310.29
198.527	3194.29
196.594	3131.38
194.66	3117.65
192.727	3259.05
190.793	3339.63
188.857	3288.38
186.922	3154.48
184.986	3189.82
183.051	3245.8
181.113	3344.35
179.176	3192.5
177.238	3296.17
175.301	3370.12
173.361	3504.64
171.422	3477.95
169.482	3426.78
167.541	3510.92
165.602	3664.58
163.66	3658.47
161.717	3739.91
159.775	3742.8
157.832	3737.96
155.889	3944.09
153.945	3934.06
152	3746.6
150.055	3807.32
148.109	3839.73
146.164	3855.42
144.217	3768.36
142.27	3689.04
140.322	3743.27
138.375	3702.5
136.426	3769.52
134.477	3632.57
132.527	3739.32
130.578	3831.92
128.627	3848.85
126.676	3824.77
124.725	3835.29
122.771	3912.39
120.82	3974.09
118.867	4014
116.912	3809.47
114.959	3976.04
113.004	3995.45
111.049	4032.74
109.094	4040.62
107.137	4112.38
105.18	4107.45
103.223	4148.5
101.266	4271.25
99.3066	4277.77
97.3477	4438.7
95.3887	4648.04
93.4277	4765.41
91.4668	4834.27
89.5059	4616.25
87.5449	4845.69
85.582	4927.21
83.6211	4831.62
81.6562	4756.45
79.6934	4645.68
77.7285	4778.07
75.7637	4830.22
73.7988	4674.99
71.834	4709.33
69.8672	4884.78
67.9004	4855.49
65.9336	4888.48
63.9648	4737.25
61.9961	4354.95
60.0273	3928.42
58.0586	3103.55
56.0879	2156.03
54.1172	1362.53
52.1465	880.203
50.1738	592.136
48.2031	338.452
46.2305	214.168
44.2559	130.492
42.2832	100.059
40.3086	63.311