File: PeakFitting/xrdData/jacobson_raman/C3_02125_532nm_5sec_1per_50x.txt
#Wave		#Intensity
1818.91	314.532
1817.34	296.969
1815.78	333.627
1814.21	325.584
1812.64	327.117
1811.07	304.719
1809.51	339.752
1807.94	299.818
1806.37	352.378
1804.8	278.978
1803.23	272.549
1801.67	345.8
1800.1	328.208
1798.53	296.286
1796.96	307.377
1795.39	294.579
1793.82	331.138
1792.25	280.139
1790.68	332.601
1789.1	287.986
1787.53	343.607
1785.96	341.95
1784.39	327.572
1782.82	340.227
1781.24	330.623
1779.67	328.97
1778.1	320.961
1776.52	338.373
1774.95	339.895
1773.38	303.304
1771.8	361.989
1770.22	301.598
1768.65	326.932
1767.07	314.173
1765.5	339.494
1763.92	317.222
1762.35	366.319
1760.77	337.708
1759.19	313.864
1757.62	366.102
1756.04	318.493
1754.46	348.53
1752.88	346.877
1751.3	349.976
1749.72	302.408
1748.14	318.177
1746.56	314.949
1744.98	300.645
1743.4	344.882
1741.82	341.65
1740.24	327.349
1738.66	325.702
1737.08	341.445
1735.5	322.411
1733.92	330.247
1732.33	339.66
1730.75	330.115
1729.17	334.786
1727.58	322.088
1726	307.816
1724.42	320.38
1722.83	323.472
1721.25	345.493
1719.66	337.537
1718.08	370.585
1716.49	334.247
1714.9	340.485
1713.32	348.296
1711.73	337.196
1710.14	310.346
1708.56	337.059
1706.97	333.841
1705.38	340.071
1703.79	362.039
1702.21	330.49
1700.62	330.423
1699.03	338.222
1697.44	339.725
1695.85	331.794
1694.26	327.01
1692.67	314.368
1691.08	331.591
1689.49	322.096
1687.89	344.022
1686.3	303.117
1684.71	328.179
1683.12	301.423
1681.53	321.766
1679.93	373.485
1678.34	338.892
1676.74	327.842
1675.15	362.277
1673.56	324.571
1671.96	365.263
1670.37	371.457
1668.77	329.071
1667.18	314.903
1665.58	308.573
1663.98	341.396
1662.39	347.588
1660.79	347.516
1659.19	361.53
1657.59	337.984
1656	331.656
1654.4	370.689
1652.8	364.357
1651.2	345.52
1649.6	365.769
1648	351.628
1646.4	360.93
1644.8	348.357
1643.2	362.341
1641.6	337.282
1640	329.406
1638.4	335.58
1636.79	327.707
1635.19	335.44
1633.59	366.567
1631.98	330.621
1630.38	372.65
1628.78	389.72
1627.17	364.701
1625.57	363.067
1623.96	384.801
1622.36	347.339
1620.75	333.251
1619.15	376.774
1617.54	326.884
1615.94	337.709
1614.33	329.858
1612.72	356.234
1611.12	368.601
1609.51	340.535
1607.9	323.362
1606.29	338.836
1604.68	365.182
1603.07	365.105
1601.46	351.048
1599.85	319.914
1598.24	313.636
1596.63	333.75
1595.02	344.543
1593.41	341.367
1591.8	344.397
1590.19	317.957
1588.58	330.295
1586.96	341.077
1585.35	365.805
1583.74	313.038
1582.12	354.804
1580.51	308.257
1578.89	326.776
1577.28	323.61
1575.67	363.79
1574.05	337.401
1572.44	345.066
1570.82	331.069
1569.2	372.76
1567.59	375.773
1565.97	350.956
1564.35	343.152
1562.73	339.988
1561.12	349.186
1559.5	310.492
1557.88	336.681
1556.26	348.961
1554.64	318.012
1553.02	333.377
1551.4	305.53
1549.78	357.918
1548.16	326.993
1546.54	363.933
1544.92	345.354
1543.29	345.279
1541.67	314.383
1540.05	351.294
1538.43	357.38
1536.8	332.661
1535.18	309.493
1533.55	343.294
1531.93	352.455
1530.31	343.146
1528.68	333.841
1527.06	353.765
1525.43	365.99
1523.8	318.251
1522.18	368.906
1520.55	339.628
1518.92	356.455
1517.3	344.089
1515.67	319.442
1514.04	313.231
1512.41	340.796
1510.78	345.326
1509.15	340.648
1507.52	340.574
1505.89	305.223
1504.26	322.025
1502.63	337.286
1501	340.278
1499.37	347.867
1497.74	341.662
1496.11	324.738
1494.47	339.982
1492.84	335.315
1491.21	329.119
1489.57	330.578
1487.94	336.626
1486.31	354.91
1484.67	327.303
1483.04	334.877
1481.4	328.689
1479.77	327.089
1478.13	323.961
1476.49	345.279
1474.86	332.984
1473.22	343.601
1471.58	299.249
1469.95	319.028
1468.31	332.693
1466.67	300.579
1465.03	364.582
1463.39	332.475
1461.75	340.026
1460.11	295.742
1458.47	330.732
1456.83	316.946
1455.19	304.689
1453.55	353.361
1451.91	287.804
1450.26	330.37
1448.62	318.12
1446.98	340.877
1445.34	298.202
1443.69	331.601
1442.05	301.112
1440.4	337.537
1438.76	332.902
1437.11	302.434
1435.47	347.95
1433.82	323.568
1432.18	359.947
1430.53	341.646
1428.88	330.945
1427.24	365.78
1425.59	315.624
1423.94	356.516
1422.29	324.586
1420.64	345.744
1419	359.313
1417.35	313.761
1415.7	304.599
1414.05	315.137
1412.4	305.979
1410.74	321.056
1409.09	339.154
1407.44	339.079
1405.79	348.084
1404.14	340.442
1402.48	325.239
1400.83	322.143
1399.18	337.192
1397.53	323.512
1395.87	346.111
1394.22	350.568
1392.56	315.743
1390.91	315.673
1389.25	357.885
1387.6	333.65
1385.94	323.011
1384.28	366.702
1382.62	312.306
1380.97	289.611
1379.31	300.103
1377.65	339.237
1375.99	315.044
1374.33	316.481
1372.68	334.491
1371.02	360.026
1369.36	341.873
1367.7	320.717
1366.04	341.721
1364.37	317.564
1362.71	325.017
1361.05	321.936
1359.39	332.393
1357.72	333.823
1356.06	297.668
1354.4	296.098
1352.74	327.589
1351.07	304.981
1349.41	297.403
1347.74	294.333
1346.08	324.295
1344.41	363.249
1342.75	339.157
1341.08	291.07
1339.41	307.505
1337.75	308.936
1336.08	341.853
1334.41	299.805
1332.74	320.719
1331.07	311.658
1329.41	322.074
1327.74	311.519
1326.07	351.877
1324.4	353.296
1322.73	326.277
1321.05	282.81
1319.38	294.715
1317.71	338.024
1316.04	342.434
1314.37	333.387
1312.7	328.829
1311.02	294.385
1309.35	313.742
1307.68	325.621
1306	328.535
1304.33	337.419
1302.65	323.91
1300.98	325.33
1299.3	343.161
1297.62	323.692
1295.95	326.603
1294.27	301.182
1292.6	305.587
1290.92	333.835
1289.24	353.13
1287.56	341.134
1285.88	329.143
1284.21	360.338
1282.53	333.461
1280.85	346.781
1279.17	330.336
1277.48	342.163
1275.8	355.472
1274.12	310.782
1272.44	344.906
1270.76	332.938
1269.08	334.349
1267.39	304.561
1265.71	369.847
1264.03	311.849
1262.34	359.288
1260.66	357.723
1258.97	338.351
1257.29	341.243
1255.6	375.283
1253.92	349.987
1252.23	355.839
1250.54	311.289
1248.86	330.485
1247.17	364.489
1245.48	377.74
1243.79	340.63
1242.11	364.244
1240.42	381.926
1238.73	367.04
1237.04	368.437
1235.35	394.982
1233.66	374.187
1231.97	400.719
1230.28	415.412
1228.59	382.803
1226.89	394.538
1225.2	382.631
1223.51	391.407
1221.82	406.085
1220.12	392.707
1218.43	410.33
1216.73	426.47
1215.04	435.227
1213.35	417.428
1211.65	430.606
1209.96	459.996
1208.26	397.984
1206.56	464.21
1204.87	449.372
1203.17	437.487
1201.47	441.806
1199.77	493.239
1198.07	463.687
1196.38	512.149
1194.68	466.421
1192.98	478.084
1191.28	488.271
1189.58	516.098
1187.88	515.982
1186.18	477.653
1184.47	486.362
1182.77	533.261
1181.07	536.078
1179.37	464.007
1177.66	478.583
1175.96	490.216
1174.26	551.736
1172.55	579.485
1170.85	520.686
1169.14	563.094
1167.44	510.188
1165.73	507.142
1164.03	539.266
1162.32	514.238
1160.61	500.939
1158.91	557.938
1157.2	563.668
1155.49	592.816
1153.78	526.829
1152.07	589.622
1150.37	551.457
1148.66	570.344
1146.95	608.23
1145.24	540.851
1143.53	533.422
1141.81	550.835
1140.1	566.779
1138.39	578.334
1136.68	572.363
1134.96	563.475
1133.25	563.348
1131.54	621.585
1129.83	587.892
1128.11	592.135
1126.4	577.42
1124.68	607.903
1122.97	591.733
1121.25	649.885
1119.54	619.145
1117.82	630.657
1116.1	576.637
1114.38	630.372
1112.67	636.051
1110.95	621.356
1109.23	600.847
1107.51	609.438
1105.79	635.476
1104.07	596.078
1102.35	619.2
1100.63	643.764
1098.91	639.259
1097.19	637.662
1095.47	583.786
1093.75	596.721
1092.03	608.198
1090.3	603.707
1088.58	594.865
1086.86	571.521
1085.13	632.302
1083.41	640.858
1081.68	576.932
1079.96	604.337
1078.23	612.893
1076.51	599.717
1074.78	598.133
1073.05	577.727
1071.33	574.701
1069.6	577.465
1067.87	584.569
1066.14	528.018
1064.41	577.073
1062.69	527.779
1060.96	521.877
1059.23	566.563
1057.5	511.525
1055.77	544.637
1054.04	571.956
1052.3	499.626
1050.57	532.717
1048.84	571.567
1047.11	545.463
1045.38	536.683
1043.64	493.29
1041.91	527.788
1040.17	543.527
1038.44	528.99
1036.71	495.725
1034.97	484.087
1033.23	512.786
1031.5	508.349
1029.76	476.559
1028.03	505.24
1026.29	437.487
1024.55	453.215
1022.81	453.112
1021.07	465.952
1019.33	448.593
1017.6	508.865
1015.86	439.767
1014.12	469.84
1012.38	452.495
1010.63	453.829
1008.89	466.649
1007.15	453.623
1005.41	444.909
1003.67	439.069
1001.93	437.534
1000.18	454.646
998.439	418.695
996.695	455.873
994.951	431.404
993.205	406.947
991.461	462.725
989.715	392.44
987.969	400.942
986.223	439.505
984.477	410.779
982.729	420.703
980.982	432.052
979.234	420.512
977.486	400.396
975.736	433.188
973.988	407.361
972.238	397.266
970.488	420.034
968.738	441.364
966.988	381.286
965.236	406.899
963.484	421.08
961.734	405.287
959.98	410.902
958.229	405.103
956.475	389.324
954.723	377.829
952.969	373.467
951.215	384.783
949.459	390.395
947.705	427.342
945.949	380.248
944.193	397.248
942.438	405.698
940.68	358.641
938.924	379.903
937.166	375.549
935.408	344.175
933.65	359.737
931.891	369.606
930.133	332.57
928.373	395.015
926.613	357.989
924.854	396.255
923.092	401.845
921.33	376.2
919.57	380.373
917.809	343.393
916.045	366.013
914.283	390.041
912.52	360.175
910.756	377.105
908.992	384.106
907.229	328.754
905.463	403.765
903.699	379.594
901.934	379.508
900.168	338.365
898.4	356.688
896.635	384.909
894.867	377.748
893.1	367.761
891.332	364.849
889.564	359.11
887.795	367.509
886.025	384.384
884.256	384.296
882.486	403.984
880.717	340.343
878.945	369.915
877.174	375.477
875.402	369.746
873.631	358.375
871.859	380.863
870.086	376.545
868.312	344.03
866.539	336.904
864.766	359.376
862.992	332.523
861.217	335.264
859.441	352.088
857.666	313.991
855.891	336.443
854.113	356.07
852.338	325.033
850.561	336.213
848.783	344.575
847.004	327.623
845.227	344.418
843.447	341.528
841.668	355.502
839.889	330.134
838.109	335.676
836.328	331.387
834.547	336.927
832.766	356.5
830.984	342.386
829.203	303.027
827.42	329.606
825.637	337.945
823.854	339.269
822.07	322.373
820.287	329.305
818.502	365.656
816.717	345.963
814.932	355.686
813.146	334.605
811.359	352.724
809.574	323.257
807.787	335.774
806	358.077
804.211	332.824
802.424	327.156
800.635	328.479
798.846	353.558
797.057	336.711
795.268	311.491
793.477	319.799
791.686	347.65
789.895	323.84
788.104	315.393
786.312	329.273
784.52	326.408
782.727	315.176
780.934	315.104
779.141	348.487
777.346	307.992
775.553	326.034
773.758	327.353
771.963	335.634
770.166	336.949
768.371	310.423
766.574	308.961
764.777	304.716
762.98	332.467
761.184	297.622
759.385	318.41
757.586	315.557
755.787	312.705
753.988	318.191
752.189	298.67
750.389	302.768
748.588	345.743
746.787	323.452
744.986	334.481
743.184	338.567
741.383	339.877
739.58	342.573
737.777	311.988
735.973	329.939
734.17	321.547
732.365	306.231
730.561	344.95
728.756	313.015
726.951	333.714
725.145	343.328
723.338	326.64
721.531	322.414
719.725	325.106
717.916	354.077
716.109	342.933
714.301	331.795
712.492	345.54
710.684	320.587
708.873	342.618
707.062	292.815
705.252	321.747
703.441	347.903
701.631	327.12
699.818	356.023
698.006	339.385
696.193	342.066
694.381	337.85
692.568	347.423
690.754	351.478
688.939	330.726
687.125	337.539
685.311	320.932
683.494	327.743
681.68	342.812
679.863	355.121
678.047	356.415
676.229	349.454
674.412	345.246
672.594	331.415
670.775	313.465
668.957	347.756
667.137	375.16
665.318	342.1
663.498	339.274
661.678	363.914
659.855	341.863
658.035	356.883
656.213	367.778
654.391	352.602
652.568	358.007
650.744	368.895
648.922	349.615
647.098	356.387
645.273	364.527
643.449	378.143
641.623	413.67
639.799	427.268
637.973	402.525
636.146	399.694
634.318	420.129
632.492	430.977
630.664	433.612
628.836	474.538
627.008	468.959
625.178	467.483
623.35	491.973
621.52	516.452
619.689	535.456
617.859	527.137
616.027	582.993
614.195	607.427
612.363	603.192
610.531	609.874
608.699	676.57
606.865	703.688
605.031	693.98
603.197	759.247
601.363	746.805
599.529	765.706
597.693	775.062
595.857	814.375
594.021	819.631
592.186	830.33
590.348	858.714
588.51	941.508
586.672	893.68
584.834	920.67
582.996	959.884
581.156	977.33
579.316	1017.87
577.477	1116.82
575.637	1029.62
573.795	1051.11
571.953	1092.95
570.111	1121.2
568.27	1168.44
566.428	1169.52
564.584	1185.52
562.74	1173.04
560.896	1190.39
559.053	1218.58
557.207	1165.44
555.361	1188.2
553.516	1201.46
551.67	1249.93
549.824	1227.98
547.977	1180.32
546.129	1157.03
544.281	1173
542.434	1174.07
540.584	1098.07
538.736	1093.75
536.887	1107.01
535.035	1118.92
533.186	1048.4
531.334	1046.8
529.482	995.24
527.631	1028.76
525.779	1025.82
523.926	1003.98
522.074	918.752
520.221	918.535
518.365	930.455
516.512	910.013
514.656	814.101
512.803	828.731
510.945	833.924
509.09	786.586
507.232	787.747
505.377	802.369
503.52	737.574
501.66	721.252
499.803	690.14
497.943	691.321
496.084	654.852
494.225	650.663
492.365	627.661
490.504	615.418
488.645	591.091
486.781	542.601
484.92	582.754
483.059	551.74
481.195	593.215
479.332	521.958
477.469	544.639
475.604	506.958
473.74	540.358
471.875	528.165
470.01	553.503
468.145	475.658
466.277	503.675
464.41	510.251
462.543	452.556
460.676	429.692
458.809	464.385
456.939	440.19
455.07	438.748
453.201	454.691
451.332	470.626
449.461	429.076
447.59	447.683
445.719	480.977
443.848	411.404
441.975	407.299
440.104	400.526
438.23	432.465
436.355	392.327
434.482	418.916
432.607	386.804
430.732	416.048
428.857	433.279
426.982	403.852
425.105	390.43
423.23	361.028
421.354	404.893
419.475	419.443
417.598	408.692
415.719	416.579
413.84	423.131
411.961	427.02
410.08	418.937
408.201	429.473
406.32	393.478
404.439	409.331
402.557	421.19
400.676	431.715
398.793	393.098
396.91	386.364
395.027	420.783
393.143	386.177
391.258	411.292
389.373	371.399
387.488	372.635
385.604	389.78
383.717	410.893
381.83	380.315
379.943	366.974
378.055	393.375
376.168	341.636
374.279	381.269
372.391	397.058
370.5	355.942
368.611	329.398
366.721	362.381
364.83	359.648
362.939	348.985
361.047	348.9
359.154	364.67
357.262	350.05
355.369	315.629
353.477	344.598
351.582	355.073
349.688	360.265
347.793	350.941
345.896	313.923
344.002	336.264
342.105	322.998
340.209	342.689
338.311	333.381
336.414	316.173
334.516	326.631
332.617	333.135
330.717	348.849
328.818	296.12
326.918	314.468
325.018	331.491
323.117	335.354
321.215	331.327
319.312	301.012
317.41	306.195
315.508	320.571
313.604	340.194
311.701	304.654
309.797	301.953
307.891	396.379
305.986	318.862
304.08	297.793
302.174	317.392
300.268	270.109
298.361	329.032
296.453	300.118
294.545	297.423
292.637	311.757
290.727	278.94
288.818	303.747
286.908	312.833
284.998	295.743
283.086	296.978
281.176	302.135
279.264	294.214
277.352	273.224
275.438	311.057
273.525	271.78
271.611	276.937
269.697	304.293
267.781	261.13
265.867	321.11
263.951	281.879
262.035	297.464
260.119	262.172
258.201	290.794
256.283	286.81
254.365	289.344
252.447	306.211
250.527	269.658
248.607	268.287
246.688	278.636
244.768	260.341
242.846	286.303
240.926	288.833
239.002	260.144
237.08	276.983
235.158	287.313
233.234	267.744
231.311	244.287
229.385	236.43
227.461	272.735
225.535	249.294
223.609	266.105
221.684	258.251
219.756	264.672
217.828	254.228
215.9	273.614
213.973	263.173
212.043	270.882
210.113	242.306
208.184	268.152
206.254	235.706
204.322	240.825
202.391	265.357
200.459	254.936
198.527	276.864
196.594	254.805
194.66	234.05
192.727	266.309
190.793	261.07
188.857	231.285
186.922	224.766
184.986	287.988
183.051	276.293
181.113	272.35
179.176	256.794
177.238	260.598
175.301	264.399
173.361	270.778
171.422	282.309
169.482	282.236
167.541	284.739
165.602	320.731
163.66	275.577
161.717	287.091
159.775	311.471
157.832	307.529
155.889	299.731
153.945	294.508
152	288.002
150.055	277.644
148.109	316.122
146.164	296.769
144.217	295.406
142.27	286.34
140.322	286.265
138.375	287.473
136.426	297.662
134.477	279.625
132.527	271.858
130.578	238.454
128.627	272.996
126.676	275.486
124.725	286.942
122.771	293.269
120.82	286.79
118.867	277.754
116.912	282.799
114.959	292.958
113.004	294.159
111.049	309.424
109.094	302.95
107.137	323.316
105.18	309.177
103.223	341.025
101.266	311.565
99.3066	299.993
97.3477	321.608
95.3887	341.936
93.4277	318.885
91.4668	336.652
89.5059	335.287
87.5449	335.196
85.582	340.203
83.6211	314.635
81.6562	318.37
79.6934	352.659
77.7285	332.199
75.7637	332.109
73.7988	332.02
71.834	326.843
69.8672	386.511
67.9004	345.731
65.9336	358.345
63.9648	356.977
61.9961	356.88
60.0273	305.995
58.0586	217.058
56.0879	184.005
54.1172	129.402
52.1465	88.7813
50.1738	65.9338
48.2031	73.5214
46.2305	89.9757
44.2559	59.5451
42.2832	46.863
40.3086	32.9217