File: PeakFitting/xrdData/jacobson_raman/C3_02157_532nm_5sec_5per_50x.txt
#Wave		#Intensity
1818.91	552.426
1817.34	581.165
1815.78	569.88
1814.21	571.367
1812.64	560.088
1811.07	547.218
1809.51	556.683
1807.94	500.759
1806.37	583.576
1804.8	569.116
1803.23	556.256
1801.67	560.929
1800.1	528.956
1798.53	546.376
1796.96	570.16
1795.39	563.681
1793.82	546.059
1792.25	553.912
1790.68	529.934
1789.1	585.519
1787.53	594.95
1785.96	550.301
1784.39	550.194
1782.82	570.755
1781.24	540.442
1779.67	595.959
1778.1	533.875
1776.52	567.131
1774.95	565.432
1773.38	570.085
1771.8	579.5
1770.22	576.211
1768.65	561.814
1767.07	585.505
1765.5	580.63
1763.92	563.069
1762.35	612.117
1760.77	554.919
1759.19	538.958
1757.62	535.682
1756.04	592.619
1754.46	592.502
1752.88	601.888
1751.3	554.26
1749.72	549.4
1748.14	571.453
1746.56	569.757
1744.98	569.643
1743.4	594.842
1741.82	575.743
1740.24	553.488
1738.66	569.189
1737.08	580.14
1735.5	603.731
1733.92	600.45
1732.33	552.935
1730.75	555.983
1729.17	582.718
1727.58	555.76
1726	634.576
1724.42	624.979
1722.83	621.697
1721.25	585.287
1719.66	566.242
1718.08	591.359
1716.49	602.276
1714.9	583.238
1713.32	572.088
1711.73	603.486
1710.14	612.816
1708.56	601.667
1706.97	644.062
1705.38	617.166
1703.79	541.485
1702.21	588.588
1700.62	618.363
1699.03	597.787
1697.44	592.947
1695.85	578.674
1694.26	562.834
1692.67	586.297
1691.08	609.75
1689.49	589.199
1687.89	581.224
1686.3	570.111
1684.71	591.978
1683.12	593.426
1681.53	602.722
1679.93	608.875
1678.34	550.699
1676.74	561.567
1675.15	586.544
1673.56	592.695
1671.96	612.952
1670.37	600.287
1668.77	617.401
1667.18	562.439
1665.58	551.359
1663.98	612.32
1662.39	590.273
1660.79	629.286
1659.19	554.033
1657.59	616.507
1656	578.834
1654.4	572.457
1652.8	608.305
1651.2	581.6
1649.6	551.78
1648	603.237
1646.4	618.736
1644.8	579.554
1643.2	552.883
1641.6	579.313
1640	586.998
1638.4	575.949
1636.79	664.778
1635.19	650.597
1633.59	586.507
1631.98	598.861
1630.38	587.821
1628.78	567.432
1627.17	637.448
1625.57	634.198
1623.96	576.423
1622.36	587.205
1620.75	604.211
1619.15	616.54
1617.54	647.542
1615.94	602.274
1614.33	581.92
1612.72	594.242
1611.12	580.119
1609.51	606.431
1607.9	572.102
1606.29	617.055
1604.68	606.047
1603.07	568.632
1601.46	604.238
1599.85	611.875
1598.24	571.377
1596.63	560.389
1595.02	581.998
1593.41	563.255
1591.8	618.984
1590.19	606.444
1588.58	595.461
1586.96	607.737
1585.35	584.358
1583.74	647.771
1582.12	630.59
1580.51	621.162
1578.89	537.4
1577.28	572.898
1575.67	578.968
1574.05	615.99
1572.44	601.932
1570.82	600.256
1569.2	600.128
1567.59	617.01
1565.97	610.694
1564.35	570.374
1562.73	628.978
1561.12	585.581
1559.5	549.927
1557.88	586.875
1556.26	614.542
1554.64	580.448
1553.02	580.324
1551.4	618.776
1549.78	600.13
1548.16	609.256
1546.54	595.246
1544.92	590.493
1543.29	599.615
1541.67	585.616
1540.05	624.009
1538.43	582.283
1536.8	616.04
1535.18	637.464
1533.55	580.367
1531.93	591.016
1530.31	601.66
1528.68	632.299
1527.06	601.4
1525.43	578.203
1523.8	584.228
1522.18	597.936
1520.55	614.711
1518.92	576.167
1517.3	559.145
1515.67	574.382
1514.04	578.864
1512.41	594.089
1510.78	595.495
1509.15	580.022
1507.52	567.623
1505.89	559.831
1504.26	602.646
1502.63	605.582
1501	547.204
1499.37	594.591
1497.74	603.655
1496.11	579.015
1494.47	580.42
1492.84	632.352
1491.21	606.191
1489.57	557.085
1487.94	540.132
1486.31	587.438
1484.67	604.133
1483.04	616.235
1481.4	553.42
1479.77	579.283
1478.13	576.1
1476.49	611.114
1474.86	560.574
1473.22	555.87
1471.58	558.802
1469.95	569.365
1468.31	575.345
1466.67	576.745
1465.03	556.788
1463.39	535.315
1461.75	562.644
1460.11	548.8
1458.47	560.873
1456.83	568.369
1455.19	562.15
1453.55	526.996
1451.91	555.813
1450.26	573.96
1448.62	547.958
1446.98	582.839
1445.34	567.496
1443.69	556.724
1442.05	570.289
1440.4	547.357
1438.76	577.638
1437.11	560.794
1435.47	565.229
1433.82	598.524
1432.18	616.618
1430.53	573.966
1428.88	538.924
1427.24	581.302
1425.59	543.238
1423.94	588.631
1422.29	596.085
1420.64	576.24
1419	582.178
1417.35	583.565
1415.7	547.066
1414.05	583.307
1412.4	622.562
1410.74	581.535
1409.09	545.069
1407.44	607.012
1405.79	535.747
1404.14	620.361
1402.48	526.434
1400.83	571.69
1399.18	574.587
1397.53	550.272
1395.87	606.073
1394.22	589.317
1392.56	583.143
1390.91	558.848
1389.25	582.885
1387.6	566.149
1385.94	599.23
1384.28	597.588
1382.62	556.72
1380.97	555.088
1379.31	592.666
1377.65	571.427
1375.99	572.807
1374.33	575.694
1372.68	536.391
1371.02	548.323
1369.36	579.829
1367.7	572.171
1366.04	535.915
1364.37	552.351
1362.71	564.266
1361.05	564.141
1359.39	588.08
1357.72	587.949
1356.06	550.234
1354.4	557.627
1352.74	537.967
1351.07	576.909
1349.41	587.295
1347.74	542.113
1346.08	552.502
1344.41	576.395
1342.75	559.759
1341.08	601.645
1339.41	586.51
1337.75	556.386
1336.08	563.758
1334.41	575.625
1332.74	591.982
1331.07	566.378
1329.41	582.73
1327.74	587.093
1326.07	561.507
1324.4	552.399
1322.73	592.686
1321.05	565.62
1319.38	538.565
1317.71	574.341
1316.04	541.315
1314.37	593.519
1312.7	556.02
1311.02	555.895
1309.35	563.241
1307.68	601.951
1306	607.789
1304.33	579.286
1302.65	574.679
1300.98	552.165
1299.3	571.438
1297.62	598.16
1295.95	553.286
1294.27	553.162
1292.6	564.963
1290.92	588.682
1289.24	545.34
1287.56	567.563
1285.88	582.329
1284.21	562.842
1282.53	576.114
1280.85	593.844
1279.17	572.879
1277.48	547.461
1275.8	580.059
1274.12	600.747
1272.44	584.259
1270.76	555.888
1269.08	546.847
1267.39	545.238
1265.71	585.22
1264.03	570.239
1262.34	579.019
1260.66	610.06
1258.97	565.403
1257.29	554.89
1255.6	553.282
1253.92	567.988
1252.23	588.617
1250.54	564.768
1248.86	585.389
1247.17	604.519
1245.48	579.201
1243.79	595.361
1242.11	595.228
1240.42	606.936
1238.73	577.2
1237.04	609.623
1235.35	599.13
1233.66	581.248
1231.97	563.373
1230.28	586.899
1228.59	582.333
1226.89	613.233
1225.2	604.231
1223.51	595.233
1221.82	541.939
1220.12	581.678
1218.43	606.64
1216.73	599.125
1215.04	613.743
1213.35	595.905
1211.65	576.6
1209.96	613.329
1208.26	616.138
1206.56	645.473
1204.87	673.322
1203.17	631.925
1201.47	668.6
1199.77	671.394
1198.07	706.571
1196.38	678.45
1194.68	645.927
1192.98	616.361
1191.28	688.286
1189.58	654.312
1187.88	668.865
1186.18	617.275
1184.47	672.972
1182.77	659.599
1181.07	702.042
1179.37	660.769
1177.66	703.194
1175.96	666.342
1174.26	710.213
1172.55	704.185
1170.85	709.893
1169.14	708.266
1167.44	683.183
1165.73	738.727
1164.03	725.371
1162.32	733.998
1160.61	736.762
1158.91	685.341
1157.2	755.462
1155.49	718.698
1153.78	706.828
1152.07	740.32
1150.37	702.121
1148.66	709.274
1146.95	726.659
1145.24	744.036
1143.53	742.407
1141.81	790.455
1140.1	739.15
1138.39	741.903
1136.68	797.22
1134.96	772.224
1133.25	707.833
1131.54	728.101
1129.83	777.535
1128.11	812.362
1126.4	750.937
1124.68	762.43
1122.97	766.63
1121.25	747.514
1119.54	836.21
1117.82	808.348
1116.1	815.446
1114.38	780.322
1112.67	842.731
1110.95	813.438
1109.23	832.166
1107.51	786.888
1105.79	802.706
1104.07	786.532
1102.35	853.216
1100.63	796.349
1098.91	813.603
1097.19	829.397
1095.47	833.566
1093.75	817.406
1092.03	796.9
1090.3	824.292
1088.58	828.458
1086.86	834.073
1085.13	815.031
1083.41	820.646
1081.68	797.267
1079.96	762.305
1078.23	849.068
1076.51	837.286
1074.78	793.649
1073.05	844.147
1071.33	780.261
1069.6	769.953
1067.87	787.142
1066.14	818.79
1064.41	805.588
1062.69	760.58
1060.96	754.625
1059.23	846.954
1057.5	774.513
1055.77	790.229
1054.04	726.499
1052.3	788.427
1050.57	809.903
1048.84	805.39
1047.11	783.562
1045.38	779.056
1043.64	768.783
1041.91	718.137
1040.17	769.876
1038.44	732.226
1036.71	781.056
1034.97	752.064
1033.23	736.049
1031.5	757.483
1029.76	735.715
1028.03	758.579
1026.29	759.846
1024.55	709.317
1022.81	729.294
1021.07	703.243
1019.33	743.341
1017.6	789.172
1015.86	699.89
1014.12	719.847
1012.38	751.286
1010.63	758.297
1008.89	704.998
1007.15	693.354
1005.41	727.641
1003.67	750.434
1001.93	717.27
1000.18	724.278
998.439	692.568
996.695	673.774
994.951	713.752
993.205	709.291
991.461	683.344
989.715	677.46
987.969	674.442
986.223	725.827
984.477	695.605
982.729	712.619
980.982	638.064
979.234	682.259
977.486	689.254
975.736	671.941
973.988	661.783
972.238	643.056
970.488	638.624
968.738	671.331
966.988	692.599
965.236	686.731
963.484	639.471
961.734	655.023
959.98	654.875
958.229	676.122
956.475	667.412
954.723	654.428
952.969	664.258
951.215	664.107
949.459	688.177
947.705	635.316
945.949	610.961
944.193	590.888
942.438	634.882
940.68	637.584
938.924	624.634
937.166	627.337
935.408	614.394
933.65	622.786
931.891	634.017
930.133	636.715
928.373	646.517
926.613	632.164
924.854	643.382
923.092	623.357
921.33	618.956
919.57	583.333
917.809	577.524
916.045	590.161
914.283	649.596
912.52	601.236
910.756	628.035
908.992	610.884
907.229	578.153
905.463	633.274
903.699	616.133
901.934	618.825
900.168	579.043
898.4	625.62
896.635	598.591
894.867	578.647
893.1	594.075
891.332	571.313
889.564	648.943
887.795	593.669
886.025	626.037
884.256	584.922
882.486	572.076
880.717	563.472
878.945	591.581
877.174	558.981
875.402	596.957
873.631	572.835
871.859	583.989
870.086	605.01
868.312	548.474
866.539	583.59
864.766	600.369
862.992	587.551
861.217	573.331
859.441	568.975
857.666	561.805
855.891	571.531
854.113	619.252
852.338	551.571
850.561	544.412
848.783	558.352
847.004	559.63
845.227	542.633
843.447	535.482
841.668	548.006
839.889	521.19
838.109	560.397
836.328	581.332
834.547	562.949
832.766	585.277
830.984	536.031
829.203	528.894
827.42	582.071
825.637	591.754
823.854	590.217
822.07	532.616
820.287	526.889
818.502	587.01
816.717	557.462
814.932	568.538
813.146	533.407
811.359	572.477
809.574	569.548
807.787	545.633
806	553.901
804.211	555.173
802.424	570.425
800.635	540.941
798.846	553.395
797.057	593.785
795.268	567.11
793.477	586.531
791.686	611.528
789.895	569.512
788.104	548.449
786.312	519.024
784.52	564.937
782.727	555.045
780.934	547.947
779.141	561.761
777.346	514.249
775.553	543.391
773.758	579.484
771.963	543.142
770.166	552.764
768.371	566.557
766.574	524.676
764.777	532.904
762.98	574.515
761.184	496.5
759.385	563.128
757.586	542.147
755.787	572.598
753.988	572.467
752.189	547.33
750.389	530.539
748.588	531.806
746.787	562.224
744.986	553.768
743.184	555.028
741.383	556.288
739.58	565.869
737.777	553.259
735.973	519.861
734.17	512.812
732.365	514.08
730.561	531.971
728.756	541.544
726.951	516.495
725.145	555.139
723.338	543.939
721.531	578.408
719.725	594.876
717.916	591.973
716.109	598.75
714.301	528.106
712.492	565.303
710.684	581.755
708.873	567.806
707.062	570.438
705.252	600.686
703.441	589.503
701.631	575.565
699.818	561.633
698.006	543.568
696.193	562.753
694.381	623.299
692.568	568.009
690.754	576.148
688.939	529.162
687.125	567.616
685.311	579.881
683.494	596.272
681.68	539.688
679.863	615.267
678.047	569.713
676.229	546.193
674.412	585.956
672.594	587.196
670.775	563.688
668.957	604.794
667.137	601.905
665.318	594.897
663.498	620.857
661.678	606.981
659.855	623.316
658.035	609.446
656.213	629.889
654.391	591.328
652.568	640.571
650.744	606.139
648.922	621.08
647.098	627.79
645.273	666.016
643.449	698.743
641.623	643.791
639.799	676.508
637.973	670.875
636.146	674.826
634.318	660.984
632.492	673.145
630.664	735.91
628.836	786.339
627.008	769.749
625.178	773.671
623.35	777.591
621.52	785.608
619.689	818.209
617.859	879.473
616.027	854.692
614.195	896.809
612.363	934.811
610.531	900.485
608.699	922.1
606.865	1028.26
605.031	1067.56
603.197	1067.31
601.363	1117.48
599.529	1145.83
597.693	1119.69
595.857	1182.07
594.021	1169.54
592.186	1240.05
590.348	1266.98
588.51	1292.53
586.672	1339.84
584.834	1393.92
582.996	1400.4
581.156	1428.61
579.316	1466.33
577.477	1603.21
575.637	1568.88
573.795	1554.93
571.953	1589.87
570.111	1675.01
568.27	1719.4
566.428	1652.52
564.584	1671.12
562.74	1754.81
560.896	1796.43
559.053	1842.1
557.207	1786.1
555.361	1781.62
553.516	1720.25
551.67	1806.51
549.824	1791.2
547.977	1698.73
546.129	1705.1
544.281	1718.23
542.434	1765.17
540.584	1691.73
538.736	1612.92
536.887	1615.24
535.035	1652.7
533.186	1623.94
531.334	1557.37
529.482	1552.95
527.631	1458.08
525.779	1490.13
523.926	1468.19
522.074	1438.16
520.221	1377.13
518.365	1353.88
516.512	1345.47
514.656	1331.67
512.803	1290.93
510.945	1336.43
509.09	1245.88
507.232	1160.75
505.377	1198.17
503.52	1166.93
501.66	1126.28
499.803	1117.95
497.943	1055.81
496.084	1054.22
494.225	1012.29
492.365	998.612
490.504	1025.25
488.645	1023.66
486.781	920.004
484.92	978.866
483.059	962.525
481.195	971.691
479.332	907.054
477.469	855.862
475.604	871.752
473.74	938.587
471.875	918.256
470.01	853.707
468.145	850.824
466.277	846.603
464.41	837.026
462.543	831.471
460.676	827.257
458.809	812.339
456.939	773.344
455.07	799.912
453.201	821.118
451.332	807.552
449.461	773.941
447.59	752.374
445.719	800.292
443.848	765.372
441.975	713.107
440.104	778.356
438.23	774.165
436.355	743.287
434.482	772.46
432.607	764.271
430.732	762.754
428.857	803.899
426.982	734.398
425.105	763.537
423.23	736.709
421.354	723.213
419.475	744.344
417.598	722.865
415.719	737.331
413.84	739.815
411.961	732.985
410.08	732.808
408.201	724.653
406.32	709.856
404.439	736.264
402.557	771.961
400.676	697.386
398.793	694.561
396.91	639.957
395.027	723.428
393.143	716.617
391.258	735.018
389.373	738.819
387.488	667.03
385.604	729.18
383.717	726.352
381.83	677.146
379.943	715.401
378.055	695.359
376.168	681.948
374.279	729.441
372.391	730.587
370.5	658.956
368.611	661.441
366.721	711.537
364.83	653.185
362.939	664.923
361.047	635.685
359.154	676.489
357.262	660.472
355.369	673.517
353.477	636.384
351.582	649.428
349.688	655.867
347.793	680.773
345.896	660.821
344.002	676.483
342.105	634.13
340.209	664.289
338.311	682.574
336.414	616.536
334.516	626.921
332.617	664.952
330.717	631.878
328.818	683.05
326.918	652.619
325.018	644.565
323.117	666.763
321.215	646.877
319.312	675.635
317.41	609.761
315.508	610.924
313.604	616.027
311.701	644.764
309.797	597.342
307.891	657.569
305.986	621.977
304.08	623.134
302.174	636.095
300.268	614.958
298.361	578.1
296.453	618.583
294.545	601.396
292.637	597.317
290.727	593.239
288.818	627.132
286.908	589.016
284.998	588.869
283.086	587.414
281.176	572.88
279.264	572.736
277.352	583.051
275.438	609.045
273.525	581.453
271.611	590.451
269.697	587.691
267.781	545.762
265.867	587.396
263.951	567.673
262.035	567.53
260.119	567.387
258.201	593.325
256.283	561.887
254.365	577.385
252.447	566.815
250.527	557.553
248.607	567.831
246.688	565.084
244.768	528.493
242.846	521.852
240.926	551.644
239.002	571.015
237.08	526.657
235.158	577.226
233.234	545.886
231.311	518.459
229.385	515.729
227.461	487.026
225.535	534.943
223.609	558.172
221.684	502.227
219.756	524.154
217.828	542.18
215.9	519.996
213.973	534.124
212.043	524.915
210.113	524.78
208.184	522.055
206.254	511.56
204.322	537.324
202.391	516.475
200.459	493.049
198.527	499.391
196.594	547.119
194.66	528.875
192.727	535.203
190.793	523.433
188.857	554.308
186.922	496.035
184.986	530.776
183.051	516.436
181.113	521.466
179.176	538.106
177.238	565.058
175.301	550.725
173.361	540.266
171.422	545.282
169.482	556.739
167.541	529.538
165.602	560.314
163.66	564.031
161.717	558.734
159.775	554.727
157.832	521.127
155.889	569.874
153.945	586.444
152	501.432
150.055	546.289
148.109	579.557
146.164	569.128
144.217	547.144
142.27	545.716
140.322	573.814
138.375	567.246
136.426	552.983
134.477	555.403
132.527	578.339
130.578	589.724
128.627	579.315
126.676	590.693
124.725	580.289
122.771	582.697
120.82	606.868
118.867	618.227
116.912	627.02
114.959	607.664
113.004	585.76
111.049	609.898
109.094	635.301
107.137	667.08
105.18	624.741
103.223	634.792
101.266	628.238
99.3066	677.856
97.3477	662.36
95.3887	677.493
93.4277	679.862
91.4668	712.835
89.5059	642.526
87.5449	625.785
85.582	662.567
83.6211	694.234
81.6562	676.219
79.6934	670.944
77.7285	711.492
75.7637	706.21
73.7988	734.005
71.834	700.74
69.8672	723.436
67.9004	742.306
65.9336	674.756
63.9648	674.572
61.9961	688.359
60.0273	609.451
58.0586	469.657
56.0879	343.898
54.1172	197.91
52.1465	183.904
50.1738	112.848
48.2031	96.3384
46.2305	72.234
44.2559	53.2105
42.2832	56.9956
40.3086	45.5839