File: PeakFitting/xrdData/jacobson_raman/C3_02155_532nm_5sec_5per_50x.txt
#Wave		#Intensity
1818.91	1511.99
1817.34	1428.96
1815.78	1530.85
1814.21	1444.38
1812.64	1420.17
1811.07	1402.35
1809.51	1418.03
1807.94	1497.49
1806.37	1487.64
1804.8	1480.98
1803.23	1416.94
1801.67	1486.78
1800.1	1489.68
1798.53	1502.14
1796.96	1524.14
1795.39	1472.89
1793.82	1381.86
1792.25	1485.06
1790.68	1468.86
1789.1	1514.71
1787.53	1523.96
1785.96	1429.83
1784.39	1407.29
1782.82	1448.35
1781.24	1519.6
1779.67	1532.01
1778.1	1509.47
1776.52	1540.95
1774.95	1467.58
1773.38	1502.23
1771.8	1519.4
1770.22	1504.82
1768.65	1475.95
1767.07	1491.53
1765.5	1483.3
1763.92	1497.29
1762.35	1541.39
1760.77	1549.02
1759.19	1528.1
1757.62	1421.62
1756.04	1478.38
1754.46	1517.69
1752.88	1547.49
1751.3	1563.01
1749.72	1491.46
1748.14	1456.33
1746.56	1449.71
1744.98	1528.54
1743.4	1551.97
1741.82	1477.32
1740.24	1537.12
1738.66	1468.82
1737.08	1470.11
1735.5	1479.3
1733.92	1520.09
1732.33	1556.12
1730.75	1530.53
1729.17	1517.59
1727.58	1488.87
1726	1548.55
1724.42	1541.93
1722.83	1484.81
1721.25	1539.73
1719.66	1512.61
1718.08	1543.84
1716.49	1570.33
1714.9	1513.27
1713.32	1525.57
1711.73	1455.93
1710.14	1576.94
1708.56	1548.27
1706.97	1568.42
1705.38	1541.34
1703.79	1544.18
1702.21	1551.73
1700.62	1592.33
1699.03	1588.85
1697.44	1621.56
1695.85	1515.87
1694.26	1495.13
1692.67	1581.27
1691.08	1599.81
1689.49	1527.2
1687.89	1528.46
1686.3	1536
1684.71	1565.52
1683.12	1524.38
1681.53	1568.02
1679.93	1555.14
1678.34	1503.05
1676.74	1614.11
1675.15	1540.07
1673.56	1625.99
1671.96	1644.47
1670.37	1587.71
1668.77	1567.01
1667.18	1621.52
1665.58	1544.43
1663.98	1616.15
1662.39	1642.43
1660.79	1545.04
1659.19	1572.89
1657.59	1545.96
1656	1575.37
1654.4	1673.58
1652.8	1605.99
1651.2	1563.44
1649.6	1525.6
1648	1651.87
1646.4	1621.84
1644.8	1618.38
1643.2	1605.55
1641.6	1583.35
1640	1586.14
1638.4	1654.49
1636.79	1660.38
1635.19	1678.76
1633.59	1650.33
1631.98	1649.99
1630.38	1613.78
1628.78	1608.76
1627.17	1631.81
1625.57	1665.74
1623.96	1652.93
1622.36	1546.67
1620.75	1630.44
1619.15	1653.45
1617.54	1684.23
1615.94	1654.31
1614.33	1611.95
1612.72	1650.5
1611.12	1581.72
1609.51	1663.8
1607.9	1624.58
1606.29	1537.2
1604.68	1648.76
1603.07	1594.03
1601.46	1682.24
1599.85	1684.99
1598.24	1658.23
1596.63	1569.4
1595.02	1559.76
1593.41	1660.28
1591.8	1655.28
1590.19	1668.89
1588.58	1556.88
1586.96	1606.16
1585.35	1625.97
1583.74	1620.98
1582.12	1668.66
1580.51	1583.11
1578.89	1607.55
1577.28	1656.76
1575.67	1591.39
1574.05	1600.33
1572.44	1595.35
1570.82	1646.06
1569.2	1560.64
1567.59	1581.96
1565.97	1658.92
1564.35	1711.12
1562.73	1602.58
1561.12	1534.25
1559.5	1665.23
1557.88	1638.62
1556.26	1721.65
1554.64	1642.54
1553.02	1626.76
1551.4	1629.5
1549.78	1721.71
1548.16	1716.71
1546.54	1679.33
1544.92	1660.47
1543.29	1633.91
1541.67	1635.1
1540.05	1685.59
1538.43	1699.1
1536.8	1700.27
1535.18	1652.17
1533.55	1719.55
1531.93	1697.63
1530.31	1701.88
1528.68	1683.05
1527.06	1667.31
1525.43	1688.48
1523.8	1764.98
1522.18	1689.28
1520.55	1736.56
1518.92	1653.22
1517.3	1654.39
1515.67	1623.32
1514.04	1622.97
1512.41	1688.63
1510.78	1692.86
1509.15	1655.67
1507.52	1673.72
1505.89	1653.42
1504.26	1674.53
1502.63	1683.36
1501	1626.28
1499.37	1498.74
1497.74	1637.83
1496.11	1632.88
1494.47	1721.35
1492.84	1708.73
1491.21	1688.46
1489.57	1643.71
1487.94	1595.91
1486.31	1727.13
1484.67	1668.63
1483.04	1743.19
1481.4	1608.28
1479.77	1643.08
1478.13	1636.61
1476.49	1708.06
1474.86	1637.43
1473.22	1653.87
1471.58	1653.51
1469.95	1665.36
1468.31	1674.15
1466.67	1689.04
1465.03	1597.14
1463.39	1668.47
1461.75	1666.58
1460.11	1737.87
1458.47	1675
1456.83	1685.3
1455.19	1584.38
1453.55	1616.02
1451.91	1720.74
1450.26	1682.3
1448.62	1736.72
1446.98	1645.04
1445.34	1688.8
1443.69	1609.33
1442.05	1736.72
1440.4	1716.57
1438.76	1764.84
1437.11	1617.03
1435.47	1657.7
1433.82	1708.98
1432.18	1763.28
1430.53	1741.64
1428.88	1720
1427.24	1657.39
1425.59	1678.27
1423.94	1741.62
1422.29	1656.3
1420.64	1710.52
1419	1685.89
1417.35	1679.45
1415.7	1744.25
1414.05	1725.68
1412.4	1738.93
1410.74	1740.06
1409.09	1667
1407.44	1696.91
1405.79	1732.86
1404.14	1735.5
1402.48	1747.22
1400.83	1704.48
1399.18	1701.08
1397.53	1755.13
1395.87	1760.78
1394.22	1737.73
1392.56	1728.28
1390.91	1702.22
1389.25	1716.94
1387.6	1773.93
1385.94	1762.97
1384.28	1700.71
1382.62	1703.35
1380.97	1693.92
1379.31	1756.89
1377.65	1776.1
1375.99	1703.35
1374.33	1696.94
1372.68	1645.34
1371.02	1669.07
1369.36	1777.14
1367.7	1734.58
1366.04	1654.41
1364.37	1645.01
1362.71	1724.4
1361.05	1767.64
1359.39	1734.16
1357.72	1673.62
1356.06	1722.86
1354.4	1641.32
1352.74	1761.17
1351.07	1784.81
1349.41	1791.93
1347.74	1767.5
1346.08	1728.07
1344.41	1753.2
1342.75	1779.82
1341.08	1821.44
1339.41	1726.53
1337.75	1714.15
1336.08	1697.27
1334.41	1776.34
1332.74	1754.96
1331.07	1748.58
1329.41	1682.28
1327.74	1746.3
1326.07	1763.88
1324.4	1836.84
1322.73	1776.56
1321.05	1782.15
1319.38	1738.37
1317.71	1830.71
1316.04	1776.47
1314.37	1826.9
1312.7	1765.21
1311.02	1737.92
1309.35	1780.86
1307.68	1801.37
1306	1829.34
1304.33	1734.87
1302.65	1768.82
1300.98	1777.37
1299.3	1782.94
1297.62	1830.28
1295.95	1744.86
1294.27	1728.07
1292.6	1699.36
1290.92	1769.03
1289.24	1871.44
1287.56	1865.06
1285.88	1787.2
1284.21	1748.09
1282.53	1781.93
1280.85	1916.97
1279.17	1891.25
1277.48	1809
1275.8	1808.59
1274.12	1845.36
1272.44	1810.76
1270.76	1903.99
1269.08	1817.37
1267.39	1809.54
1265.71	1823.98
1264.03	1793.88
1262.34	1860.28
1260.66	1908.85
1258.97	1786.73
1257.29	1780.4
1255.6	1842.3
1253.92	1874.51
1252.23	1856.29
1250.54	1894.42
1248.86	1775.43
1247.17	1877.27
1245.48	1819.08
1243.79	1923.82
1242.11	1809.37
1240.42	1857.82
1238.73	1820.4
1237.04	1938.36
1235.35	1980.83
1233.66	1924.18
1231.97	1895.65
1230.28	1898.18
1228.59	1888.89
1226.89	1971.21
1225.2	1994.41
1223.51	1945.22
1221.82	1962.5
1220.12	2016.68
1218.43	2057.56
1216.73	2061.52
1215.04	2046.3
1213.35	2003.07
1211.65	2014.41
1209.96	2061.14
1208.26	2041.51
1206.56	2032.21
1204.87	2027.33
1203.17	1997.41
1201.47	2063.24
1199.77	2170.25
1198.07	2029.92
1196.38	2030.93
1194.68	2008.41
1192.98	2106.51
1191.28	2128.1
1189.58	2074.69
1187.88	2065.4
1186.18	2038.48
1184.47	2142.34
1182.77	2156.55
1181.07	2107.6
1179.37	2180.54
1177.66	2147.75
1175.96	2134.06
1174.26	2183.47
1172.55	2253.39
1170.85	2170.75
1169.14	2158.53
1167.44	2137.51
1165.73	2252.82
1164.03	2162.93
1162.32	2194.67
1160.61	2173.67
1158.91	2143.89
1157.2	2257.6
1155.49	2261.48
1153.78	2281.46
1152.07	2177.07
1150.37	2205.83
1148.66	2284.3
1146.95	2283.79
1145.24	2299.35
1143.53	2325.14
1141.81	2263.24
1140.1	2356.22
1138.39	2352.77
1136.68	2422.32
1134.96	2379.44
1133.25	2346.8
1131.54	2302.49
1129.83	2456.6
1128.11	2378.75
1126.4	2376.75
1124.68	2428.7
1122.97	2403.37
1121.25	2480.06
1119.54	2421.22
1117.82	2464.37
1116.1	2463.81
1114.38	2428.31
1112.67	2491.81
1110.95	2485.42
1109.23	2497.95
1107.51	2471.21
1105.79	2533.18
1104.07	2500.62
1102.35	2574.18
1100.63	2570.7
1098.91	2526.53
1097.19	2560.82
1095.47	2568.95
1093.75	2614.83
1092.03	2577.95
1090.3	2590.43
1088.58	2573.88
1086.86	2439.85
1085.13	2603.17
1083.41	2566.33
1081.68	2646.93
1079.96	2528.94
1078.23	2558.79
1076.51	2610.36
1074.78	2621.36
1073.05	2661.31
1071.33	2544.9
1069.6	2539.98
1067.87	2526.38
1066.14	2557.63
1064.41	2587.43
1062.69	2478.39
1060.96	2502.41
1059.23	2584.22
1057.5	2570.63
1055.77	2532.49
1054.04	2556.47
1052.3	2525.56
1050.57	2536.54
1048.84	2606.69
1047.11	2571.47
1045.38	2524.72
1043.64	2433.28
1041.91	2513.48
1040.17	2639.78
1038.44	2584.41
1036.71	2579.5
1034.97	2483.83
1033.23	2516.39
1031.5	2510.06
1029.76	2532.53
1028.03	2529.08
1026.29	2420.57
1024.55	2479.01
1022.81	2530.23
1021.07	2490.83
1019.33	2516.15
1017.6	2495.45
1015.86	2446.02
1014.12	2573.34
1012.38	2546.9
1010.63	2530.53
1008.89	2446.67
1007.15	2417.41
1005.41	2510.15
1003.67	2476.58
1001.93	2494.66
1000.18	2482.62
998.439	2527.94
996.695	2511.6
994.951	2465.17
993.205	2473.21
991.461	2482.67
989.715	2386.15
987.969	2491.57
986.223	2435.17
984.477	2384.52
982.729	2426.91
980.982	2412.05
979.234	2405.78
977.486	2456.72
975.736	2391.82
973.988	2429.87
972.238	2427.89
970.488	2365.91
968.738	2413.93
966.988	2423.38
965.236	2325.75
963.484	2386.6
961.734	2293.3
959.98	2359.83
958.229	2404.94
956.475	2304.57
954.723	2255.57
952.969	2302.1
951.215	2405.61
949.459	2363.74
947.705	2274.89
945.949	2305.7
944.193	2293.79
942.438	2335.97
940.68	2358.21
938.924	2339.18
937.166	2258.98
935.408	2319.62
933.65	2364.6
931.891	2439.4
930.133	2285.35
928.373	2297.62
926.613	2325.51
924.854	2428.66
923.092	2300.31
921.33	2268.56
919.57	2321.98
917.809	2285.97
916.045	2322.34
914.283	2367.2
912.52	2222.02
910.756	2244.2
908.992	2344.32
907.229	2275.77
905.463	2385.76
903.699	2295.98
901.934	2315.28
900.168	2283.61
898.4	2349.61
896.635	2319.36
894.867	2320.25
893.1	2236.27
891.332	2302.22
889.564	2366.73
887.795	2391.64
886.025	2355.76
884.256	2243.61
882.486	2231.8
880.717	2341.44
878.945	2338.09
877.174	2204.87
875.402	2162.03
873.631	2273
871.859	2316.21
870.086	2369.27
868.312	2296.82
866.539	2224.41
864.766	2245.04
862.992	2307.93
861.217	2298.96
859.441	2229.42
857.666	2202.16
855.891	2190.4
854.113	2353.16
852.338	2234.43
850.561	2321.13
848.783	2179.96
847.004	2270.86
845.227	2257.69
843.447	2271.23
841.668	2238.4
839.889	2164.83
838.109	2227.54
836.328	2257.93
834.547	2278.47
832.766	2256.9
830.984	2151.14
829.203	2230.61
827.42	2329.69
825.637	2295.5
823.854	2212.26
822.07	2211.76
820.287	2226.67
818.502	2322.82
816.717	2224.25
814.932	2250.35
813.146	2282.03
811.359	2285.71
809.574	2290.78
807.787	2291.66
806	2275.75
804.211	2283.62
802.424	2274.71
800.635	2362.25
798.846	2409.22
797.057	2260.58
795.268	2328.5
793.477	2230.21
791.686	2316.27
789.895	2346.45
788.104	2252.41
786.312	2211.43
784.52	2245.8
782.727	2376.38
780.934	2361.89
779.141	2298.62
777.346	2394.25
775.553	2237.65
773.758	2251.07
771.963	2297.91
770.166	2301.56
768.371	2175.75
766.574	2244.83
764.777	2351.46
762.98	2317.53
761.184	2291.97
759.385	2233.04
757.586	2274.24
755.787	2409.92
753.988	2364.9
752.189	2162.93
750.389	2344.37
748.588	2311.9
746.787	2365.51
744.986	2320.55
743.184	2321.41
741.383	2318.1
739.58	2422.97
737.777	2418.26
735.973	2363.64
734.17	2339.53
732.365	2280.8
730.561	2457.6
728.756	2473.65
726.951	2412.16
725.145	2390.84
723.338	2377.83
721.531	2386.97
719.725	2497.09
717.916	2474.39
716.109	2403.3
714.301	2431.78
712.492	2569.43
710.684	2514.95
708.873	2449.44
707.062	2415.73
705.252	2477.31
703.441	2599.61
701.631	2599.01
699.818	2512.86
698.006	2537.11
696.193	2533.77
694.381	2592.48
692.568	2587.75
690.754	2585.77
688.939	2545.21
687.125	2665.87
685.311	2701.06
683.494	2685.29
681.68	2665.4
679.863	2645.51
678.047	2683.43
676.229	2799.76
674.412	2735.84
672.594	2632.07
670.775	2682.33
668.957	2771.05
667.137	2764.92
665.318	2771.15
663.498	2784.24
661.678	2703.95
659.855	2894.16
658.035	2947.03
656.213	2933.99
654.391	2893.53
652.568	2813.3
650.744	2948.41
648.922	3005.31
647.098	2952.53
645.273	2962.81
643.449	3030.63
641.623	3157.31
639.799	3163.43
637.973	3103.82
636.146	3104.47
634.318	3137.97
632.492	3249.43
630.664	3403.24
628.836	3283.48
627.008	3441.31
625.178	3451.45
623.35	3640.6
621.52	3587.84
619.689	3576.08
617.859	3588.9
616.027	3695.93
614.195	3893
612.363	3863.43
610.531	3895.28
608.699	3910.74
606.865	4046.2
605.031	4259.32
603.197	4186.08
601.363	4153.76
599.529	4248.17
597.693	4349.34
595.857	4657.46
594.021	4536.56
592.186	4566.81
590.348	4686.87
588.51	4940.2
586.672	5024.74
584.834	5095.64
582.996	5026.47
581.156	5237.35
579.316	5450.84
577.477	5566.41
575.637	5525.72
573.795	5589.61
571.953	5771.6
570.111	5851.69
568.27	5961.6
566.428	5878.8
564.584	5996.79
562.74	6204.23
560.896	6322.08
559.053	6319.25
557.207	6344.87
555.361	6477.51
553.516	6531.53
551.67	6665.41
549.824	6688.22
547.977	6590.55
546.129	6551.11
544.281	6859.39
542.434	6761.74
540.584	6668.2
538.736	6497.63
536.887	6673.17
535.035	6812.14
533.186	6745.69
531.334	6549.6
529.482	6542.66
527.631	6489.81
525.779	6719.09
523.926	6604.16
522.074	6420.47
520.221	6416.26
518.365	6501.05
516.512	6550.74
514.656	6282.32
512.803	6088.14
510.945	6050.33
509.09	6061.02
507.232	6082.48
505.377	5932.95
503.52	5682.55
501.66	5580.29
499.803	5876.28
497.943	5620.68
496.084	5423.03
494.225	5320.92
492.365	5381.48
490.504	5440.68
488.645	5329.23
486.781	5035.17
484.92	5130.66
483.059	5214.01
481.195	5054.4
479.332	4898.9
477.469	4888.34
475.604	4943.51
473.74	5009.37
471.875	4859.38
470.01	4804.62
468.145	4646.71
466.277	4755.44
464.41	4629.76
462.543	4650.08
460.676	4465.58
458.809	4401.62
456.939	4389.86
455.07	4372.76
453.201	4378.4
451.332	4196.86
449.461	4080.9
447.59	4085.27
445.719	4197.86
443.848	3944.4
441.975	3857.99
440.104	3837.04
438.23	3940.23
436.355	3865.89
434.482	3880.98
432.607	3790.68
430.732	3844.44
428.857	3836.85
426.982	3749.3
425.105	3592.49
423.23	3648.91
421.354	3669.34
419.475	3597.89
417.598	3585.04
415.719	3521.62
413.84	3523.43
411.961	3601.07
410.08	3640.1
408.201	3442.44
406.32	3502.75
404.439	3543.11
402.557	3656.52
400.676	3514.83
398.793	3446.25
396.91	3482.59
395.027	3552.1
393.143	3600.34
391.258	3606.1
389.373	3428.81
387.488	3380.24
385.604	3580.94
383.717	3488.61
381.83	3542.09
379.943	3337.21
378.055	3376.13
376.168	3479.92
374.279	3455.25
372.391	3292.94
370.5	3237.88
368.611	3333.66
366.721	3328.88
364.83	3276.5
362.939	3265.13
361.047	3182.39
359.154	3181.61
357.262	3298.4
355.369	3214.39
353.477	3137.03
351.582	3173.22
349.688	3237.11
347.793	3192.77
345.896	3115.49
344.002	3242.64
342.105	3164.06
340.209	3140.87
338.311	3116.38
336.414	3145.92
334.516	3182.02
332.617	3211.52
330.717	3185.72
328.818	3203.36
326.918	3201.25
325.018	3111.01
323.117	3126.03
321.215	3137.09
319.312	3027.21
317.41	3001.5
315.508	3003.38
313.604	3109.03
311.701	3062.3
309.797	2946.01
307.891	3041.09
305.986	3010.16
304.08	3039.58
302.174	2835.54
300.268	2879.42
298.361	2962.6
296.453	2972.35
294.545	2941.47
292.637	2907.99
290.727	2928.22
288.818	3062.34
286.908	2986.97
284.998	2924.72
283.086	2853.34
281.176	2969.03
279.264	2963.06
277.352	2947.94
275.438	2891
273.525	2862.84
271.611	2949.64
269.697	2948.9
267.781	2911.6
265.867	2884.77
263.951	2934.94
262.035	3011.17
260.119	2839.55
258.201	2854.48
256.283	2847.24
254.365	2941.67
252.447	2892.71
250.527	2907.61
248.607	2857.39
246.688	2852.76
244.768	2868.96
242.846	2831.8
240.926	2911.74
239.002	2938.32
237.08	2889.46
235.158	2974.53
233.234	2882.8
231.311	2863.87
229.385	2811.18
227.461	2876.7
225.535	2914.92
223.609	2896
221.684	2810.91
219.756	2853.01
217.828	2863.95
215.9	2845.07
213.973	2828.78
212.043	2841.02
210.113	2785.87
208.184	2860.29
206.254	2898.41
204.322	2862.71
202.391	2847.73
200.459	2880.65
198.527	2829.45
196.594	2831.31
194.66	2777.56
192.727	2809.17
190.793	2984.21
188.857	2894.29
186.922	2822.49
184.986	2816.6
183.051	2926.9
181.113	2957.12
179.176	2975.71
177.238	2938.82
175.301	2981.91
173.361	3115.23
171.422	3095.09
169.482	3006.65
167.541	2968.5
165.602	3079.79
163.66	3157.54
161.717	3105.22
159.775	3000.16
157.832	3062.43
155.889	3217.28
153.945	3116.12
152	3043.31
150.055	3124.78
148.109	3226.76
146.164	3152.69
144.217	3209.65
142.27	3130.48
140.322	3181.01
138.375	3171.19
136.426	3196.01
134.477	3156.69
132.527	3168.68
130.578	3266.56
128.627	3242.62
126.676	3334.02
124.725	3390.78
122.771	3393.73
120.82	3474.77
118.867	3508.41
116.912	3295.05
114.959	3450.25
113.004	3528.63
111.049	3545.59
109.094	3493.52
107.137	3518.14
105.18	3560.64
103.223	3595.45
101.266	3711.97
99.3066	3629.27
97.3477	3744.44
95.3887	3823.82
93.4277	3913.35
91.4668	3798.81
89.5059	3755.72
87.5449	3852.85
85.582	3943.55
83.6211	3975.61
81.6562	3963.07
79.6934	3903.44
77.7285	3996.57
75.7637	4113.83
73.7988	4047.84
71.834	3971.71
69.8672	4030.39
67.9004	4157.67
65.9336	4218.81
63.9648	4020.76
61.9961	3759.31
60.0273	3325.32
58.0586	2593.27
56.0879	1827.36
54.1172	1141.79
52.1465	747.031
50.1738	471.68
48.2031	258.593
46.2305	177.417
44.2559	96.2856
42.2832	87.3932
40.3086	41.7853