File: PeakFitting/xrdData/jacobson_raman/C3_02160_532nm_5sec_1per_50x.txt
#Wave		#Intensity
1818.91	130.922
1817.34	180.417
1815.78	126.108
1814.21	130.872
1812.64	157.974
1811.07	114.868
1809.51	146.747
1807.94	169.046
1806.37	170.608
1804.8	156.228
1803.23	156.198
1801.67	127.484
1800.1	151.358
1798.53	133.806
1796.96	149.707
1795.39	165.601
1793.82	138.505
1792.25	149.62
1790.68	111.397
1789.1	135.242
1787.53	152.714
1785.96	144.732
1784.39	125.622
1782.82	162.164
1781.24	138.29
1779.67	144.619
1778.1	163.658
1776.52	158.86
1774.95	147.711
1773.38	109.571
1771.8	149.241
1770.22	153.974
1768.65	136.486
1767.07	130.112
1765.5	152.296
1763.92	139.578
1762.35	139.55
1760.77	120.497
1759.19	134.739
1757.62	142.637
1756.04	160.039
1754.46	136.244
1752.88	182.15
1751.3	147.275
1749.72	139.329
1748.14	123.472
1746.56	144.022
1744.98	134.499
1743.4	132.89
1741.82	142.354
1740.24	158.14
1738.66	143.878
1737.08	113.815
1735.5	154.884
1733.92	156.433
1732.33	156.402
1730.75	123.201
1729.17	135.81
1727.58	134.203
1726	138.912
1724.42	116.789
1722.83	140.434
1721.25	165.647
1719.66	115.141
1718.08	135.618
1716.49	107.211
1714.9	148.174
1713.32	138.688
1711.73	129.206
1710.14	137.057
1708.56	146.479
1706.97	146.449
1705.38	127.527
1703.79	168.427
1702.21	130.622
1700.62	179.373
1699.03	103.826
1697.44	136.834
1695.85	138.378
1694.26	147.783
1692.67	132.035
1691.08	111.578
1689.49	136.694
1687.89	168.084
1686.3	125.644
1684.71	142.891
1683.12	166.411
1681.53	134.985
1679.93	117.695
1678.34	138.067
1676.74	120.784
1675.15	127.032
1673.56	148.958
1671.96	170.874
1670.37	156.733
1668.77	155.134
1667.18	142.568
1665.58	156.636
1663.98	145.641
1662.39	137.783
1660.79	117.404
1659.19	134.595
1657.59	165.862
1656	132.975
1654.4	125.127
1652.8	161.068
1651.2	129.766
1649.6	139.117
1648	142.214
1646.4	126.56
1644.8	159.338
1643.2	148.372
1641.6	113.989
1640	152.994
1638.4	163.888
1636.79	170.096
1635.19	138.857
1633.59	182.504
1631.98	141.918
1630.38	180.868
1628.78	173.036
1627.17	158.972
1625.57	149.59
1623.96	148
1622.36	147.969
1620.75	130.809
1619.15	160.363
1617.54	193.017
1615.94	163.408
1614.33	182.044
1612.72	161.783
1611.12	163.304
1609.51	172.6
1607.9	150.799
1606.29	180.298
1604.68	184.922
1603.07	160.025
1601.46	183.291
1599.85	183.252
1598.24	170.792
1596.63	189.384
1595.02	159.856
1593.41	178.442
1591.8	164.442
1590.19	179.917
1588.58	170.575
1586.96	182.941
1585.35	184.452
1583.74	178.214
1582.12	187.473
1580.51	171.943
1578.89	156.419
1577.28	162.579
1575.67	181.121
1574.05	164.057
1572.44	177.949
1570.82	176.364
1569.2	185.607
1567.59	170.103
1565.97	159.244
1564.35	160.756
1562.73	149.904
1561.12	174.593
1559.5	168.376
1557.88	155.985
1556.26	168.304
1554.64	154.375
1553.02	171.319
1551.4	146.593
1549.78	157.361
1548.16	148.072
1546.54	168.088
1544.92	164.968
1543.29	149.518
1541.67	188.014
1540.05	132.506
1538.43	164.826
1536.8	184.812
1535.18	178.613
1533.55	163.18
1531.93	183.153
1530.31	176.959
1528.68	164.613
1527.06	158.425
1525.43	121.484
1523.8	190.643
1522.18	161.397
1520.55	162.898
1518.92	162.863
1517.3	152.075
1515.67	172.007
1514.04	158.151
1512.41	198.03
1510.78	171.896
1509.15	162.652
1507.52	142.673
1505.89	174.851
1504.26	157.945
1502.63	148.712
1501	157.877
1499.37	176.232
1497.74	150.148
1496.11	168.496
1494.47	150.082
1492.84	173.016
1491.21	174.51
1489.57	168.35
1487.94	137.711
1486.31	166.747
1484.67	169.769
1483.04	160.557
1481.4	142.177
1479.77	146.731
1478.13	165.037
1476.49	155.834
1474.86	155.8
1473.22	146.603
1471.58	138.937
1469.95	137.38
1468.31	144.981
1466.67	164.784
1465.03	175.426
1463.39	166.237
1461.75	143.329
1460.11	173.787
1458.47	160.032
1456.83	170.663
1455.19	175.196
1453.55	162.973
1451.91	158.369
1450.26	155.289
1448.62	155.255
1446.98	158.264
1445.34	176.487
1443.69	167.321
1442.05	135.348
1440.4	180.932
1438.76	196.093
1437.11	189.971
1435.47	168.657
1433.82	161.024
1432.18	165.545
1430.53	171.582
1428.88	185.208
1427.24	174.542
1425.59	168.434
1423.94	174.465
1422.29	197.178
1420.64	177.421
1419	175.866
1417.35	148.544
1415.7	150.026
1414.05	177.265
1412.4	175.711
1410.74	152.956
1409.09	172.605
1407.44	181.649
1405.79	146.801
1404.14	178.543
1402.48	167.914
1400.83	149.728
1399.18	178.425
1397.53	145.127
1395.87	167.766
1394.22	178.306
1392.56	143.52
1390.91	152.55
1389.25	181.208
1387.6	143.424
1385.94	169.052
1384.28	172.033
1382.62	147.855
1380.97	177.99
1379.31	179.459
1377.65	164.342
1375.99	182.394
1374.33	177.832
1372.68	147.658
1371.02	194.323
1369.36	173.196
1367.7	146.054
1366.04	174.624
1364.37	156.525
1362.71	156.49
1361.05	177.516
1359.39	181.989
1357.72	192.474
1356.06	162.364
1354.4	147.298
1352.74	165.297
1351.07	177.279
1349.41	171.232
1347.74	180.204
1346.08	171.156
1344.41	201.138
1342.75	166.577
1341.08	148.536
1339.41	180.003
1337.75	170.965
1336.08	164.929
1334.41	166.392
1332.74	172.349
1331.07	157.327
1329.41	181.26
1327.74	158.755
1326.07	172.195
1324.4	142.217
1322.73	164.635
1321.05	139.16
1319.38	178.026
1317.71	167.516
1316.04	180.937
1314.37	158.471
1312.7	161.425
1311.02	153.917
1309.35	176.293
1307.68	180.735
1306	152.321
1304.33	156.766
1302.65	126.877
1300.98	167.142
1299.3	143.232
1297.62	162.592
1295.95	156.59
1294.27	138.663
1292.6	146.085
1290.92	175.859
1289.24	156.45
1287.56	150.456
1285.88	142.976
1284.21	150.389
1282.53	154.821
1280.85	154.786
1279.17	145.824
1277.48	154.717
1275.8	154.682
1274.12	157.622
1272.44	135.286
1270.76	151.606
1269.08	145.628
1267.39	123.31
1265.71	124.768
1264.03	142.56
1262.34	115.804
1260.66	123.199
1258.97	120.204
1257.29	136.497
1255.6	133.5
1253.92	126.055
1252.23	152.714
1250.54	152.68
1248.86	117.078
1247.17	142.24
1245.48	149.614
1243.79	156.986
1242.11	137.702
1240.42	143.592
1238.73	118.4
1237.04	140.568
1235.35	150.892
1233.66	155.295
1231.97	112.379
1230.28	121.224
1228.59	135.976
1226.89	138.901
1225.2	106.368
1223.51	135.885
1221.82	124.041
1220.12	147.634
1218.43	159.409
1216.73	131.335
1215.04	118.028
1213.35	147.501
1211.65	131.246
1209.96	175.447
1208.26	129.713
1206.56	119.368
1204.87	153.229
1203.17	147.302
1201.47	129.596
1199.77	138.401
1198.07	156.035
1196.38	117.735
1194.68	139.779
1192.98	130.922
1191.28	139.716
1189.58	147.037
1187.88	129.363
1186.18	144.031
1184.47	124.897
1182.77	111.647
1181.07	129.246
1179.37	104.255
1177.66	126.252
1175.96	123.288
1174.26	114.456
1172.55	137.903
1170.85	127.605
1169.14	133.441
1167.44	133.411
1165.73	131.915
1164.03	131.886
1162.32	134.786
1160.61	114.249
1158.91	95.1863
1157.2	111.27
1155.49	139.056
1153.78	136.097
1152.07	146.308
1150.37	137.499
1148.66	127.231
1146.95	125.74
1145.24	122.788
1143.53	147.604
1141.81	109.583
1140.1	128.548
1138.39	146.044
1136.68	97.8274
1134.96	115.323
1133.25	143.026
1131.54	116.73
1129.83	128.374
1128.11	145.846
1126.4	123.941
1124.68	107.877
1122.97	118.055
1121.25	125.314
1119.54	109.261
1117.82	135.453
1116.1	115.036
1114.38	158.685
1112.67	132.45
1110.95	130.965
1109.23	94.5644
1107.51	117.815
1105.79	113.426
1104.07	113.4
1102.35	130.817
1100.63	104.63
1098.91	119.135
1097.19	123.465
1095.47	111.82
1093.75	119.054
1092.03	105.963
1090.3	117.549
1088.58	127.678
1086.86	129.1
1085.13	75.4121
1083.41	111.643
1081.68	114.517
1079.96	117.389
1078.23	120.26
1076.51	128.925
1074.78	124.551
1073.05	124.523
1071.33	149.104
1069.6	134.597
1067.87	122.991
1066.14	112.837
1064.41	109.919
1062.69	124.353
1060.96	106.978
1059.23	91.0548
1057.5	115.599
1055.77	108.349
1054.04	128.546
1052.3	127.072
1050.57	96.7264
1048.84	124.128
1047.11	111.113
1045.38	96.6607
1043.64	134.14
1041.91	100.943
1040.17	128.313
1038.44	112.428
1036.71	112.403
1034.97	126.785
1033.23	108.031
1031.5	122.407
1029.76	96.4636
1028.03	105.078
1026.29	110.811
1024.55	112.225
1022.81	107.884
1021.07	89.1637
1019.33	113.586
1017.6	137.997
1015.86	127.906
1014.12	125.003
1012.38	101.991
1010.63	110.585
1008.89	136.405
1007.15	114.841
1005.41	127.732
1003.67	120.529
1001.93	117.632
1000.18	111.869
998.439	136.219
996.695	116.119
994.951	113.226
993.205	103.17
991.461	124.635
989.715	100.258
987.969	107.395
986.223	127.413
984.477	121.659
982.729	124.494
980.982	71.5318
979.234	121.576
977.486	95.8091
975.736	104.365
973.988	84.3309
972.238	107.176
970.488	132.868
968.738	105.699
966.988	105.675
965.236	112.789
963.484	109.909
961.734	88.4781
959.98	87.0313
958.229	118.393
956.475	108.383
954.723	108.359
952.969	116.887
951.215	105.459
949.459	139.63
947.705	116.807
945.949	139.567
944.193	125.297
942.438	112.457
940.68	130.933
938.924	132.326
937.166	145.098
935.408	99.5546
933.65	123.704
931.891	88.1369
930.133	126.49
928.373	113.673
926.613	105.124
924.854	123.563
923.092	120.695
921.33	96.5344
919.57	133.414
917.809	109.261
916.045	136.191
914.283	133.323
912.52	126.203
910.756	119.086
908.992	119.059
907.229	100.61
905.463	147.339
903.699	87.8166
901.934	110.454
900.168	117.507
898.4	106.157
896.635	94.8122
894.867	113.183
893.1	96.1835
891.332	82.0202
889.564	118.761
887.795	103.185
886.025	111.641
884.256	120.093
882.486	105.94
880.717	111.565
878.945	117.187
877.174	115.748
875.402	103.021
873.631	110.052
871.859	121.312
870.086	107.181
868.312	95.8773
866.539	98.6747
864.766	112.745
862.992	121.174
861.217	108.468
859.441	115.485
857.666	90.1141
855.891	80.2395
854.113	125.258
852.338	116.787
850.561	95.6589
848.783	95.6371
847.004	92.803
845.227	111.057
843.447	99.788
841.668	129.273
839.889	119.41
838.109	105.338
836.328	102.505
834.547	129.155
832.766	120.705
830.984	94.0158
829.203	93.9944
827.42	116.414
825.637	99.5605
823.854	114.959
822.07	79.8923
820.287	98.091
818.502	123.286
816.717	131.662
814.932	105.025
813.146	99.4014
811.359	93.7799
809.574	125.944
807.787	116.122
806	97.9118
804.211	125.858
802.424	111.848
800.635	104.834
798.846	135.554
797.057	128.537
795.268	96.3807
793.477	106.134
791.686	122.864
789.895	99.1063
788.104	107.457
786.312	101.851
784.52	92.0638
782.727	96.2264
780.934	118.513
779.141	114.304
777.346	89.1922
775.553	118.431
773.758	97.5093
771.963	125.34
770.166	91.8952
768.371	83.522
766.574	118.296
764.777	82.0923
762.98	116.85
761.184	108.479
759.385	125.139
757.586	104.259
755.787	132.031
753.988	113.938
752.189	80.5715
750.389	112.496
748.588	83.3116
746.787	73.575
744.986	129.074
743.184	129.044
741.383	106.818
739.58	120.663
737.777	122.022
735.973	121.994
734.17	112.264
732.365	105.31
730.561	108.057
728.756	108.032
726.951	106.622
725.145	113.52
723.338	98.2688
721.531	110.7
719.725	105.141
717.916	128.63
716.109	116.155
714.301	107.833
712.492	99.5155
710.684	93.9652
708.873	109.14
707.062	124.308
705.252	114.614
703.441	98.0204
701.631	120.082
699.818	96.5953
698.006	110.369
696.193	79.9993
694.381	96.5286
692.568	107.536
690.754	100.619
688.939	106.108
687.125	77.1517
685.311	106.059
683.494	90.8868
681.68	96.3728
679.863	89.4684
678.047	107.337
676.229	101.809
674.412	97.6594
672.594	115.514
670.775	83.8658
668.957	104.464
667.137	87.9497
665.318	103.042
663.498	109.886
661.678	96.1282
659.855	82.3766
658.035	100.202
656.213	100.178
654.391	83.6914
652.568	109.734
650.744	120.679
648.922	97.3437
647.098	102.804
645.273	89.0762
643.449	126.048
641.623	119.17
639.799	108.187
637.973	87.6245
636.146	101.292
634.318	83.4784
632.492	99.8772
630.664	94.3825
628.836	124.447
627.008	109.378
625.178	114.82
623.35	90.1951
621.52	105.203
619.689	114.74
617.859	83.3041
616.027	111.956
614.195	92.8204
612.363	102.352
610.531	117.336
608.699	81.8432
606.865	95.4615
605.031	103.62
603.197	137.673
601.363	121.288
599.529	100.822
597.693	88.5396
595.857	88.519
594.021	119.813
592.186	99.3673
590.348	93.9006
588.51	84.3548
586.672	104.739
584.834	122.393
582.996	104.69
581.156	111.462
579.316	118.231
577.477	84.2367
575.637	108.667
573.795	105.926
571.953	124.909
570.111	86.8727
568.27	100.423
566.428	73.2645
564.584	86.8117
562.74	117.982
560.896	98.9732
559.053	97.5945
557.207	93.5062
555.361	98.9036
553.516	111.071
551.67	120.525
549.824	115.081
547.977	120.468
546.129	97.4344
544.281	90.6468
542.434	104.152
540.584	104.127
538.736	121.679
536.887	87.8583
535.035	86.4863
533.186	133.752
531.334	125.616
529.482	101.28
527.631	93.1552
525.779	117.429
523.926	107.955
522.074	95.7876
520.221	98.4626
518.365	105.182
516.512	109.202
514.656	114.567
512.803	94.3271
510.945	115.86
509.09	107.751
507.232	109.073
505.377	84.8142
503.52	90.1779
501.66	103.613
499.803	96.8617
497.943	91.4588
496.084	92.7818
494.225	123.68
492.365	100.802
490.504	87.341
488.645	92.6939
486.781	104.76
484.92	96.6781
483.059	84.5733
481.195	91.2638
479.332	127.471
477.469	103.294
475.604	83.1518
473.74	105.926
471.875	93.8363
470.01	113.917
468.145	96.4714
466.277	96.4484
464.41	105.8
462.543	121.842
460.676	117.797
458.809	103.048
456.939	103.023
455.07	98.9857
453.201	96.2875
451.332	80.2204
449.461	86.8846
447.59	80.182
445.719	110.892
443.848	86.8223
441.975	90.8077
440.104	97.4614
438.23	85.4251
436.355	94.7458
434.482	97.3913
432.607	100.036
430.732	92.0106
428.857	126.651
426.982	117.29
425.105	75.954
423.23	93.2544
421.354	75.9174
419.475	78.5623
417.598	102.506
415.719	97.1574
413.84	105.118
411.961	119.725
410.08	98.417
408.201	105.041
406.32	91.7229
404.439	90.3718
402.557	110.28
400.676	95.6415
398.793	106.243
396.91	103.562
395.027	104.864
393.143	92.8948
391.258	92.8723
389.373	116.725
387.488	95.4795
385.604	99.4336
383.717	103.386
381.83	113.962
379.943	94.0619
378.055	64.9002
376.168	109.906
374.279	86.0502
372.391	88.6763
370.5	95.2707
368.611	103.185
366.721	79.3536
364.83	103.134
362.939	113.685
361.047	89.8682
359.154	96.4526
357.262	87.1824
355.369	95.0848
353.477	79.2179
351.582	93.7182
349.688	85.7774
347.793	96.311
345.896	87.0543
344.002	89.6703
342.105	96.2401
340.209	115.987
338.311	117.276
336.414	105.391
334.516	69.8043
332.617	106.656
330.717	73.7191
328.818	93.4423
326.918	110.524
325.018	74.98
323.117	107.839
321.215	109.128
319.312	90.6981
317.41	82.7908
315.508	89.3394
313.604	81.4364
311.701	114.245
309.797	86.6474
307.891	192.939
305.986	97.1019
304.08	86.5829
302.174	77.3806
300.268	89.1623
298.361	112.736
296.453	94.3602
294.545	73.373
292.637	47.1566
290.727	81.1939
288.818	95.5754
286.908	106.023
284.998	109.922
283.086	66.7219
281.176	100.712
279.264	82.3799
277.352	84.9739
275.438	98.0222
273.525	101.918
271.611	101.892
269.697	95.3365
267.781	105.758
265.867	92.678
263.951	90.0447
262.035	93.936
260.119	101.738
258.201	100.409
256.283	93.8651
254.365	130.335
252.447	96.4238
250.527	101.61
248.607	74.2348
246.688	98.9548
244.768	85.9127
242.846	105.412
240.926	93.6754
239.002	87.1481
237.08	92.3275
235.158	80.6036
233.234	94.8801
231.311	88.359
229.385	96.1309
227.461	107.795
225.535	94.7836
223.609	88.2691
221.684	85.6511
219.756	92.1163
217.828	76.5278
215.9	90.7724
213.973	103.713
212.043	95.9103
210.113	101.069
208.184	86.7933
206.254	93.2464
204.322	85.454
202.391	73.7822
200.459	89.2923
198.527	84.0943
196.594	82.7793
194.66	95.6889
192.727	113.763
190.793	86.5926
188.857	108.536
186.922	118.842
184.986	92.9826
183.051	96.8318
181.113	78.7362
179.176	108.395
177.238	96.7566
175.301	85.1237
173.361	97.9958
171.422	90.2358
169.482	92.7899
167.541	124.976
165.602	99.1819
163.66	100.444
161.717	100.418
159.775	100.391
157.832	115.806
155.889	97.7662
153.945	105.457
152	78.4292
150.055	93.8333
148.109	68.1077
146.164	64.2356
144.217	71.925
142.27	87.3146
140.322	92.4264
138.375	103.952
136.426	80.8305
134.477	91.0707
132.527	76.9408
130.578	99.9967
128.627	94.8436
126.676	84.5678
124.725	121.694
122.771	75.5585
120.82	101.145
118.867	115.198
116.912	87.015
114.959	80.5955
113.004	104.874
111.049	85.667
109.094	80.5311
107.137	106.068
105.18	63.8795
103.223	109.843
101.266	79.1682
99.3066	79.147
97.3477	89.3356
95.3887	111.002
93.4277	113.523
91.4668	103.291
89.5059	71.3918
87.5449	61.1765
85.582	98.1109
83.6211	95.5369
81.6562	95.5111
79.6934	100.578
77.7285	86.55
75.7637	97.9786
73.7988	83.959
71.834	118.274
69.8672	86.4563
67.9004	127.107
65.9336	110.553
63.9648	85.1155
61.9961	95.2527
60.0273	87.6086
58.0586	99.0088
56.0879	85.0228
54.1172	98.9548
52.1465	58.342
50.1738	64.6659
48.2031	51.972
46.2305	55.7596
44.2559	62.0789
42.2832	62.0619
40.3086	39.2528