File: PeakFitting/xrdData/jacobson_raman/C3_02156_532nm_5sec_5per_50x.txt
#Wave		#Intensity
1818.91	1358.71
1817.34	1444.93
1815.78	1369.63
1814.21	1377.35
1812.64	1385.06
1811.07	1359.27
1809.51	1386.13
1807.94	1366.72
1806.37	1438.21
1804.8	1393.3
1803.23	1343.62
1801.67	1360.89
1800.1	1346.29
1798.53	1369.92
1796.96	1457.25
1795.39	1437.86
1793.82	1412.11
1792.25	1330.66
1790.68	1378.15
1789.1	1384.24
1787.53	1412.61
1785.96	1399.61
1784.39	1394.57
1782.82	1429.27
1781.24	1389.25
1779.67	1411.23
1778.1	1453.86
1776.52	1423.39
1774.95	1375.46
1773.38	1381.54
1771.8	1416.2
1770.22	1466.72
1768.65	1444.21
1767.07	1418.54
1765.5	1456.34
1763.92	1417.98
1762.35	1430.39
1760.77	1449.13
1759.19	1426.65
1757.62	1394.67
1756.04	1365.88
1754.46	1476.5
1752.88	1487.3
1751.3	1418.91
1749.72	1467.71
1748.14	1438.92
1746.56	1387.99
1744.98	1397.21
1743.4	1422.24
1741.82	1391.91
1740.24	1391.63
1738.66	1430.88
1737.08	1387.91
1735.5	1447.69
1733.92	1445.82
1732.33	1401.3
1730.75	1380.48
1729.17	1451.27
1727.58	1422.56
1726	1477.52
1724.42	1448.81
1722.83	1434.32
1721.25	1443.5
1719.66	1413.24
1718.08	1496.53
1716.49	1502.54
1714.9	1451.79
1713.32	1479.86
1711.73	1454.35
1710.14	1477.69
1708.56	1535.67
1706.97	1513.31
1705.38	1440.58
1703.79	1463.9
1702.21	1466.75
1700.62	1438.13
1699.03	1470.87
1697.44	1437.54
1695.85	1457.69
1694.26	1397.65
1692.67	1471.24
1691.08	1442.65
1689.49	1454.93
1687.89	1442.06
1686.3	1411.93
1684.71	1487.01
1683.12	1488.28
1681.53	1563.31
1679.93	1562.99
1678.34	1460.69
1676.74	1479.21
1675.15	1445.97
1673.56	1486.44
1671.96	1541
1670.37	1575.17
1668.77	1416.57
1667.18	1463.28
1665.58	1467.68
1663.98	1561.34
1662.39	1526.57
1660.79	1519.99
1659.19	1505.59
1657.59	1524.06
1656	1528.43
1654.4	1528.12
1652.8	1631.01
1651.2	1543.12
1649.6	1516.22
1648	1525.28
1646.4	1562.47
1644.8	1560.58
1643.2	1505.59
1641.6	1594.28
1640	1556.48
1638.4	1570.2
1636.79	1590.16
1635.19	1536.78
1633.59	1538.02
1631.98	1570.45
1630.38	1532.7
1628.78	1558.88
1627.17	1533.62
1625.57	1625.23
1623.96	1539.2
1622.36	1503.06
1620.75	1554.13
1619.15	1552.25
1617.54	1533.24
1615.94	1540.7
1614.33	1571.49
1612.72	1536.94
1611.12	1584.83
1609.51	1624.92
1607.9	1565.51
1606.29	1549.63
1604.68	1508.9
1603.07	1548.98
1601.46	1587.48
1599.85	1624.42
1598.24	1614.76
1596.63	1645.46
1595.02	1617.18
1593.41	1581.15
1591.8	1622.7
1590.19	1589.78
1588.58	1535.17
1586.96	1551.9
1585.35	1554.67
1583.74	1566.74
1582.12	1586.55
1580.51	1519.6
1578.89	1570.38
1577.28	1562.31
1575.67	1665.69
1574.05	1601.88
1572.44	1606.18
1570.82	1577.99
1569.2	1562.19
1567.59	1626.8
1565.97	1631.09
1564.35	1602.92
1562.73	1596.4
1561.12	1592.97
1559.5	1515.39
1557.88	1583.02
1556.26	1658.34
1554.64	1565.36
1553.02	1615.95
1551.4	1521.48
1549.78	1609.09
1548.16	1611.83
1546.54	1563.68
1544.92	1588.01
1543.29	1632.37
1541.67	1611.98
1540.05	1667.11
1538.43	1648.26
1536.8	1635.59
1535.18	1604.44
1533.55	1562.53
1531.93	1611.44
1530.31	1618.79
1528.68	1603.05
1527.06	1601.17
1525.43	1525.47
1523.8	1517.46
1522.18	1578.61
1520.55	1638.21
1518.92	1565.64
1517.3	1543.79
1515.67	1571.1
1514.04	1569.23
1512.41	1637.97
1510.78	1656.03
1509.15	1611.17
1507.52	1578.61
1505.89	1581.33
1504.26	1557.99
1502.63	1635.84
1501	1604.83
1499.37	1581.49
1497.74	1499.94
1496.11	1600.72
1494.47	1655.5
1492.84	1589.3
1491.21	1622.63
1489.57	1548.82
1487.94	1559.19
1486.31	1528.26
1484.67	1608.98
1483.04	1622.39
1481.4	1508.91
1479.77	1534.56
1478.13	1525.06
1476.49	1544.59
1474.86	1625.21
1473.22	1542.39
1471.58	1526.78
1469.95	1555.45
1468.31	1494.07
1466.67	1595.97
1465.03	1559.01
1463.39	1532.74
1461.75	1582.72
1460.11	1562.56
1458.47	1540.88
1456.83	1542.06
1455.19	1537.15
1453.55	1532.25
1451.91	1559.32
1450.26	1598.56
1448.62	1642.35
1446.98	1594.82
1445.34	1570.12
1443.69	1559.13
1442.05	1590.72
1440.4	1661.84
1438.76	1588.51
1437.11	1577.52
1435.47	1575.65
1433.82	1564.67
1432.18	1685.83
1430.53	1588.28
1428.88	1615.25
1427.24	1607.31
1425.59	1657.03
1423.94	1612.67
1422.29	1583.49
1420.64	1628.64
1419	1558.54
1417.35	1567.29
1415.7	1571.49
1414.05	1601.44
1412.4	1690.46
1410.74	1656.77
1409.09	1571.61
1407.44	1619.71
1405.79	1616.32
1404.14	1611.43
1402.48	1629.22
1400.83	1616.76
1399.18	1595.24
1397.53	1558.6
1395.87	1650.45
1394.22	1647.06
1392.56	1563.61
1390.91	1616.13
1389.25	1587.08
1387.6	1589.75
1385.94	1645.24
1384.28	1583
1382.62	1591.71
1380.97	1479.73
1379.31	1603.06
1377.65	1666.03
1375.99	1649.08
1374.33	1609.53
1372.68	1550.41
1371.02	1616.35
1369.36	1652.14
1367.7	1593.05
1366.04	1636.35
1364.37	1599.86
1362.71	1588.97
1361.05	1629.24
1359.39	1642.41
1357.72	1613.48
1356.06	1598.08
1354.4	1570.67
1352.74	1604.89
1351.07	1603.03
1349.41	1613.18
1347.74	1659.38
1346.08	1647
1344.41	1612.11
1342.75	1616.25
1341.08	1618.89
1339.41	1611.03
1337.75	1594.17
1336.08	1592.32
1334.41	1699.89
1332.74	1657.55
1331.07	1643.69
1329.41	1559.44
1327.74	1623.49
1326.07	1566.23
1324.4	1703.6
1322.73	1611.93
1321.05	1642.99
1319.38	1632.15
1317.71	1576.45
1316.04	1628.43
1314.37	1647.5
1312.7	1623.22
1311.02	1669.18
1309.35	1667.31
1307.68	1610.18
1306	1688.97
1304.33	1637.83
1302.65	1594.17
1300.98	1598.29
1299.3	1668.06
1297.62	1681.11
1295.95	1638.98
1294.27	1711.67
1292.6	1635.26
1290.92	1614.03
1289.24	1689.66
1287.56	1668.43
1285.88	1642.73
1284.21	1634.92
1282.53	1647.95
1280.85	1704.14
1279.17	1708.22
1277.48	1648.33
1275.8	1636.06
1274.12	1614.88
1272.44	1648.71
1270.76	1728.6
1269.08	1655.4
1267.39	1644.63
1265.71	1598.21
1264.03	1609.74
1262.34	1722.21
1260.66	1687.68
1258.97	1684.34
1257.29	1675.06
1255.6	1674.68
1253.92	1696.55
1252.23	1719.89
1250.54	1697.27
1248.86	1668.73
1247.17	1669.84
1245.48	1722.79
1243.79	1651.31
1242.11	1637.62
1240.42	1730.51
1238.73	1744.92
1237.04	1737.13
1235.35	1789.99
1233.66	1717.12
1231.97	1704.91
1230.28	1740
1228.59	1755.87
1226.89	1795.37
1225.2	1815.65
1223.51	1741.39
1221.82	1776.44
1220.12	1774.56
1218.43	1855.34
1216.73	1788.52
1215.04	1776.31
1213.35	1808.36
1211.65	1776.99
1209.96	1853.25
1208.26	1854.31
1206.56	1849.47
1204.87	1776.86
1203.17	1705.76
1201.47	1786.37
1199.77	1869.89
1198.07	1876.83
1196.38	1858.75
1194.68	1887.76
1192.98	1891.74
1191.28	1907.49
1189.58	1951.17
1187.88	1934.56
1186.18	1831.25
1184.47	1841.12
1182.77	1895.06
1181.07	1984.22
1179.37	1910.36
1177.66	1882.03
1175.96	1928.58
1174.26	1973.63
1172.55	1986.39
1170.85	1933.14
1169.14	1989.89
1167.44	1955.72
1165.73	1942.09
1164.03	2022.25
1162.32	1989.56
1160.61	1986.18
1158.91	1959.37
1157.2	1999.92
1155.49	1981.91
1153.78	2051.7
1152.07	2030.76
1150.37	1946.92
1148.66	2048.85
1146.95	2084.94
1145.24	2088.86
1143.53	2114.69
1141.81	2036.77
1140.1	2110.81
1138.39	2138.08
1136.68	2158.04
1134.96	2189.67
1133.25	2114.74
1131.54	2169.71
1129.83	2141.5
1128.11	2181.86
1126.4	2207.61
1124.68	2192.53
1122.97	2159.97
1121.25	2172.6
1119.54	2214.35
1117.82	2269.2
1116.1	2217.72
1114.38	2218.68
1112.67	2216.72
1110.95	2284.61
1109.23	2276.82
1107.51	2244.3
1105.79	2243.8
1104.07	2206.94
1102.35	2239.87
1100.63	2271.34
1098.91	2280.99
1097.19	2223.83
1095.47	2239.3
1093.75	2295.42
1092.03	2370.38
1090.3	2287.12
1088.58	2261.94
1086.86	2232.42
1085.13	2388.53
1083.41	2232.85
1081.68	2316.42
1079.96	2220.25
1078.23	2271.91
1076.51	2388.73
1074.78	2273.78
1073.05	2345.66
1071.33	2219.18
1069.6	2214.34
1067.87	2278.95
1066.14	2318.94
1064.41	2273.58
1062.69	2264.39
1060.96	2236.41
1059.23	2358.75
1057.5	2316.31
1055.77	2263.78
1054.04	2212.72
1052.3	2307.52
1050.57	2211.71
1048.84	2306.47
1047.11	2279.98
1045.38	2256.38
1043.64	2208.27
1041.91	2214.98
1040.17	2315.4
1038.44	2307.66
1036.71	2276.88
1034.97	2179.83
1033.23	2245.6
1031.5	2193.25
1029.76	2198.51
1028.03	2235.43
1026.29	2170.17
1024.55	2212.84
1022.81	2197.95
1021.07	2214.71
1019.33	2186.89
1017.6	2251.08
1015.86	2224.7
1014.12	2238.56
1012.38	2232.31
1010.63	2170.05
1008.89	2169.56
1007.15	2189.16
1005.41	2213.06
1003.67	2251.3
1001.93	2161.85
1000.18	2215.86
998.439	2168.04
996.695	2183.32
994.951	2200.02
993.205	2109.25
991.461	2183.26
989.715	2162.71
987.969	2153.63
986.223	2097.31
984.477	2176.99
982.729	2160.75
980.982	2147.39
979.234	2088.25
977.486	2160.71
975.736	2161.65
973.988	2122.57
972.238	2122.08
970.488	2091.6
968.738	2128.26
966.988	2090.65
965.236	2084.46
963.484	2059.72
961.734	2042.13
959.98	2017.41
958.229	2058.32
956.475	1976.57
954.723	2038.85
952.969	2019.86
951.215	2086.38
949.459	2070.23
947.705	2069.76
945.949	1989.54
944.193	2122.93
942.438	2126.71
940.68	2079.27
938.924	2027.57
937.166	1955.98
935.408	1983.98
933.65	2040.41
931.891	2076.9
930.133	2076.43
928.373	2002.07
926.613	2052.76
924.854	2046.61
923.092	2047.56
921.33	2025.8
919.57	1987.02
917.809	2026.3
916.045	2061.31
914.283	2062.26
912.52	2046.19
910.756	1983.34
908.992	1988.56
907.229	2067.46
905.463	2079.74
903.699	2014.12
901.934	1951.35
900.168	2008.95
898.4	1977.36
896.635	2067.47
894.867	2007.58
893.1	2025.51
891.332	1995.35
889.564	2014.69
887.795	2043.92
886.025	2013.78
884.256	2004.84
882.486	1974.72
880.717	2071.71
878.945	1982.29
877.174	2005.84
875.402	1878.37
873.631	2021.85
871.859	1983.31
870.086	2029.39
868.312	2040.21
866.539	1984.77
864.766	1937.81
862.992	2037.41
861.217	2022.86
859.441	1992.82
857.666	1851.56
855.891	1980.65
854.113	1981.61
852.338	1961.45
850.561	1990.55
848.783	1939.46
847.004	1931.99
845.227	2039.8
843.447	1915.65
841.668	1964.39
839.889	1928.82
838.109	1907.32
836.328	1891.43
834.547	1927.5
832.766	1934.08
830.984	1857.86
829.203	1907.95
827.42	2015.51
825.637	2012.24
823.854	1951.5
822.07	1965.07
820.287	1905.77
818.502	1997.8
816.717	2002.94
814.932	1935.27
813.146	1933.43
811.359	1967.98
809.574	1961.93
807.787	2032.83
806	2008.59
804.211	1927.02
802.424	1971.32
800.635	1987.64
798.846	1945.27
797.057	1989.53
795.268	1915.04
793.477	1911.81
791.686	2002.13
789.895	2017.02
788.104	1946.78
786.312	1965.87
784.52	1945.89
782.727	1969.16
780.934	1918.51
779.141	1937.59
777.346	1916.24
775.553	1892.11
773.758	1911.18
771.963	1913.53
770.166	1903.35
768.371	1932.14
766.574	1921.96
764.777	1977.17
762.98	1980.89
761.184	1891.43
759.385	1903.51
757.586	1939.22
755.787	1941.55
753.988	1992.52
752.189	1918.43
750.389	1941.61
748.588	1891.17
746.787	2030.95
744.986	1977.74
743.184	1895.42
741.383	1968.51
739.58	2023.54
737.777	2036.94
735.973	2017.06
734.17	1984.72
732.365	1980.11
730.561	2008.75
728.756	2076.15
726.951	2050.75
725.145	2032.28
723.338	2005.51
721.531	2057.64
719.725	2101.43
717.916	2114.78
716.109	1993.99
714.301	2062.66
712.492	2074.62
710.684	2087.96
708.873	2123.4
707.062	2064.9
705.252	2093.42
703.441	2168.87
701.631	2113.16
699.818	2141.66
698.006	2083.22
696.193	2184.81
694.381	2104.32
692.568	2185.18
690.754	2078.54
688.939	2134.56
687.125	2132.69
685.311	2232.75
683.494	2210.2
681.68	2222.08
679.863	2189.91
678.047	2186.65
676.229	2228.8
674.412	2266.8
672.594	2185.14
670.775	2209.38
668.957	2258.35
667.137	2316.92
665.318	2330.13
663.498	2318.6
661.678	2275.49
659.855	2404.02
658.035	2377.39
656.213	2359
654.391	2366.68
652.568	2388.08
650.744	2460.21
648.922	2559.73
647.098	2448.11
645.273	2503.73
643.449	2482.59
641.623	2549.14
639.799	2763.55
637.973	2671.18
636.146	2652.76
634.318	2650.78
632.492	2859.5
630.664	2851.99
628.836	2839.02
627.008	2856.14
625.178	2979.86
623.35	3028.37
621.52	3042.7
619.689	3140.34
617.859	3105.47
616.027	3212.61
614.195	3367.47
612.363	3362.59
610.531	3282.68
608.699	3416.95
606.865	3496.62
605.031	3733.04
603.197	3659.93
601.363	3619.55
599.529	3784.93
597.693	3910.73
595.857	4075.96
594.021	4049.14
592.186	4132.59
590.348	4194.23
588.51	4425.91
586.672	4506.49
584.834	4610.15
582.996	4585.96
581.156	4727.61
579.316	4848.82
577.477	5044.69
575.637	5077.47
573.795	5032.82
571.953	5202.72
570.111	5344.03
568.27	5516.48
566.428	5492.12
564.584	5516.61
562.74	5733.65
560.896	5874.67
559.053	5823.14
557.207	5848.88
555.361	5939.64
553.516	6073.7
551.67	6194.15
549.824	6116.88
547.977	5901.58
546.129	5904.25
544.281	6161.28
542.434	6134.13
540.584	5929.84
538.736	5827.05
536.887	5921.65
535.035	6060.79
533.186	5985.06
531.334	5778.35
529.482	5797.24
527.631	5716.22
525.779	5839.05
523.926	5728.37
522.074	5382.99
520.221	5265.73
518.365	5415.52
516.512	5464.12
514.656	5283.57
512.803	5152.96
510.945	5062.82
509.09	5145.13
507.232	5020.03
505.377	4876.14
503.52	4752.51
501.66	4647.77
499.803	4674.92
497.943	4606.57
496.084	4464.29
494.225	4387.94
492.365	4399
490.504	4344.21
488.645	4266.61
486.781	4133.97
484.92	4154.48
483.059	4081
481.195	4182.03
479.332	4066.98
477.469	3898.33
475.604	3861.19
473.74	3927.32
471.875	3895.55
470.01	3772.66
468.145	3732.91
466.277	3782.92
464.41	3803.45
462.543	3633.84
460.676	3590.14
458.809	3451.44
456.939	3480.05
455.07	3570.18
453.201	3596.07
451.332	3453.49
449.461	3347.06
447.59	3351.61
445.719	3495.1
443.848	3233.8
441.975	3207.65
440.104	3178.84
438.23	3222.13
436.355	3281.41
434.482	3117.85
432.607	3122.44
430.732	3069.69
428.857	3190.27
426.982	3109.53
425.105	3020.84
423.23	2982.81
421.354	3024.71
419.475	3111.87
417.598	3104.46
415.719	2965.3
413.84	2979.22
411.961	2953.22
410.08	3028.32
408.201	2947.81
406.32	2851.39
404.439	2974.3
402.557	2976.23
400.676	2915.74
398.793	2905.74
396.91	2828.03
395.027	2928.22
393.143	2969.98
391.258	2932.11
389.373	2837.22
387.488	2800.73
385.604	2898.16
383.717	2929.27
381.83	2798.69
379.943	2717.2
378.055	2754.95
376.168	2881.4
374.279	2876.72
372.391	2747.64
370.5	2674.2
368.611	2778.05
366.721	2772.08
364.83	2623.32
362.939	2686.13
361.047	2533.49
359.154	2630.64
357.262	2668.31
355.369	2609.55
353.477	2593.07
351.582	2531.71
349.688	2686.81
347.793	2672.96
345.896	2587.89
344.002	2572.75
342.105	2587.94
340.209	2583.35
338.311	2610.38
336.414	2509.62
334.516	2541.93
332.617	2667.71
330.717	2613.08
328.818	2554.53
326.918	2510.48
325.018	2558.53
323.117	2490.83
321.215	2516.51
319.312	2431.76
317.41	2454.81
315.508	2427.93
313.604	2495.63
311.701	2434.61
309.797	2447.13
307.891	2450.46
305.986	2386.87
304.08	2386.28
302.174	2379.13
300.268	2339.2
298.361	2410.72
296.453	2398.32
294.545	2351.87
292.637	2346.04
290.727	2346.77
288.818	2415.57
286.908	2391.41
284.998	2394.74
283.086	2279.01
281.176	2358.22
279.264	2356.33
277.352	2371.42
275.438	2279.34
273.525	2344.1
271.611	2326.53
269.697	2365.13
267.781	2275.75
265.867	2313.03
263.951	2264.17
262.035	2301.43
260.119	2347.81
258.201	2300.27
256.283	2216.26
254.365	2351.25
252.447	2239.9
250.527	2291.44
248.607	2150.21
246.688	2213.46
244.768	2245.44
242.846	2213.64
240.926	2249.51
239.002	2189.11
237.08	2240.57
235.158	2315.4
233.234	2271.92
231.311	2188.18
229.385	2299.35
227.461	2300.06
225.535	2260.52
223.609	2223.6
221.684	2155.55
219.756	2200.41
217.828	2232.28
215.9	2291.36
213.973	2207.8
212.043	2181.31
210.113	2198.89
208.184	2228.13
206.254	2190
204.322	2137.64
202.391	2160.39
200.459	2281.48
198.527	2252.43
196.594	2198.82
194.66	2178.86
192.727	2280.43
190.793	2309.57
188.857	2280.54
186.922	2190.82
184.986	2229
183.051	2322.67
181.113	2305.29
179.176	2244.04
177.238	2273.13
175.301	2367.99
173.361	2359.64
171.422	2340.98
169.482	2287.53
167.541	2338.47
165.602	2403.55
163.66	2382.32
161.717	2366.25
159.775	2418.4
157.832	2332.85
155.889	2466.02
153.945	2417.79
152	2439.02
150.055	2394.68
148.109	2433.88
146.164	2444.81
144.217	2472.42
142.27	2476.91
140.322	2435.18
138.375	2474.32
136.426	2476.24
134.477	2398.62
132.527	2496.73
130.578	2585.81
128.627	2542.83
126.676	2503.72
124.725	2555.58
122.771	2620.21
120.82	2705.3
118.867	2700.74
116.912	2615.57
114.959	2607.2
113.004	2664.06
111.049	2706.82
109.094	2707.38
107.137	2663.21
105.18	2749.37
103.223	2813.78
101.266	2837.29
99.3066	2796.95
97.3477	2876.61
95.3887	2937.08
93.4277	2943.94
91.4668	2913.82
89.5059	2753.68
87.5449	2944.12
85.582	3003.21
83.6211	2966.74
81.6562	2991.41
79.6934	3088.63
77.7285	3087.8
75.7637	3177.31
73.7988	3046.69
71.834	3062.4
69.8672	3134.04
67.9004	3168.78
65.9336	3303.89
63.9648	3069.24
61.9961	2828.37
60.0273	2517.79
58.0586	1933.21
56.0879	1305.8
54.1172	877.907
52.1465	558.054
50.1738	341.081
48.2031	239.578
46.2305	133.063
44.2559	97.5525
42.2832	49.3962
40.3086	65.8435