File: PeakFitting/xrdData/jacobson_raman/C3_02161_532nm_5sec_5per_50x.txt
#Wave		#Intensity
1818.91	2733.39
1817.34	2749.36
1815.78	2697.75
1814.21	2780.23
1812.64	2735.02
1811.07	2648.34
1809.51	2762.68
1807.94	2746.2
1806.37	2761.62
1804.8	2735.58
1803.23	2604.36
1801.67	2640.51
1800.1	2703.73
1798.53	2749.4
1796.96	2785.5
1795.39	2764.26
1793.82	2690.5
1792.25	2723.4
1790.68	2676.72
1789.1	2773.26
1787.53	2782.26
1785.96	2705.38
1784.39	2763.69
1782.82	2721.82
1781.24	2694.26
1779.67	2846.3
1778.1	2726.58
1776.52	2706.98
1774.95	2736.63
1773.38	2744.03
1771.8	2822.88
1770.22	2733.43
1768.65	2705.91
1767.07	2668.89
1765.5	2744.51
1763.92	2753.49
1762.35	2841.75
1760.77	2739.72
1759.19	2712.23
1757.62	2711.69
1756.04	2779.29
1754.46	2816.76
1752.88	2819.37
1751.3	2741.21
1749.72	2707.42
1748.14	2673.64
1746.56	2693.68
1744.98	2773.85
1743.4	2836.57
1741.82	2733.2
1740.24	2677.3
1738.66	2740.01
1737.08	2745.79
1735.5	2827.42
1733.92	2798.41
1732.33	2690.42
1730.75	2689.88
1729.17	2743.04
1727.58	2826.17
1726	2771.93
1724.42	2750.85
1722.83	2668.25
1721.25	2759.21
1719.66	2780.74
1718.08	2895.29
1716.49	2741.77
1714.9	2744.37
1713.32	2758
1711.73	2681.81
1710.14	2720.65
1708.56	2817.75
1706.97	2821.9
1705.38	2733.17
1703.79	2751.5
1702.21	2708.45
1700.62	2775.56
1699.03	2759.26
1697.44	2824.75
1695.85	2777
1694.26	2721.41
1692.67	2816.74
1691.08	2800.45
1689.49	2809.3
1687.89	2774.17
1686.3	2776.74
1684.71	2762.04
1683.12	2879.22
1681.53	2919.44
1679.93	2903.14
1678.34	2758.2
1676.74	2873.72
1675.15	2837.05
1673.56	2986.99
1671.96	2997.35
1670.37	2821.19
1668.77	2887.99
1667.18	2887.4
1665.58	2951.02
1663.98	3003.66
1662.39	2974.85
1660.79	2844.31
1659.19	2900.06
1657.59	2840
1656	2972.39
1654.4	3107.85
1652.8	2952.39
1651.2	2925.2
1649.6	2966.79
1648	2986.49
1646.4	2995.25
1644.8	3008.68
1643.2	2959.64
1641.6	2966.83
1640	2997.43
1638.4	2989
1636.79	3105.42
1635.19	3008.04
1633.59	3019.89
1631.98	3005.22
1630.38	3113.74
1628.78	3172.32
1627.17	3084.38
1625.57	3130.48
1623.96	3056.6
1622.36	3121.38
1620.75	3066.22
1619.15	3180.78
1617.54	3159.88
1615.94	3137.43
1614.33	3051.19
1612.72	3193.66
1611.12	3203.88
1609.51	3282.5
1607.9	3242.95
1606.29	3173.87
1604.68	3109.49
1603.07	3265.75
1601.46	3299.23
1599.85	3241.07
1598.24	3221.76
1596.63	3222.63
1595.02	3207.98
1593.41	3337.64
1591.8	3329.17
1590.19	3254.02
1588.58	3124.62
1586.96	3265.04
1585.35	3233.34
1583.74	3280.7
1582.12	3338.87
1580.51	3302.54
1578.89	3269.31
1577.28	3290.29
1575.67	3178.13
1574.05	3295.08
1572.44	3263.43
1570.82	3188.47
1569.2	3260.49
1567.59	3310.82
1565.97	3365.77
1564.35	3293.95
1562.73	3248.43
1561.12	3117.95
1559.5	3199.15
1557.88	3161.4
1556.26	3312.04
1554.64	3311.33
1553.02	3113.07
1551.4	3346.95
1549.78	3185.78
1548.16	3336.26
1546.54	3326.29
1544.92	3189.9
1543.29	3292.49
1541.67	3230.13
1540.05	3274.12
1538.43	3241.07
1536.8	3258.85
1535.18	3292.02
1533.55	3152.76
1531.93	3235.2
1530.31	3325.29
1528.68	3318.41
1527.06	3196.19
1525.43	3232.4
1523.8	3219.4
1522.18	3235.62
1520.55	3317.9
1518.92	3240.36
1517.3	3118.31
1515.67	3165.24
1514.04	3222.9
1512.41	3335.8
1510.78	3246.06
1509.15	3173.24
1507.52	3233.92
1505.89	3187.2
1504.26	3217.18
1502.63	3224.15
1501	3162.14
1499.37	3233.47
1497.74	3071.9
1496.11	3244.32
1494.47	3341.63
1492.84	3201.57
1491.21	3213.12
1489.57	3112.94
1487.94	3167.35
1486.31	3134.53
1484.67	3236.32
1483.04	3168.33
1481.4	3149.3
1479.77	3090.53
1478.13	3218.22
1476.49	3235.85
1474.86	3230.56
1473.22	3035.91
1471.58	3110.06
1469.95	3240.65
1468.31	3189.58
1466.67	3216.35
1465.03	3125.64
1463.39	3155.46
1461.75	3110.55
1460.11	3225.73
1458.47	3231.12
1456.83	3184.69
1455.19	3142.86
1453.55	3020.32
1451.91	3203.92
1450.26	3178.86
1448.62	3147.72
1446.98	3166.81
1445.34	3146.33
1443.69	3116.74
1442.05	3192.09
1440.4	3322.15
1438.76	3224.13
1437.11	3170.23
1435.47	3131.55
1433.82	3206.82
1432.18	3332.17
1430.53	3346.62
1428.88	3221.4
1427.24	3210.06
1425.59	3236.67
1423.94	3275.4
1422.29	3291.36
1420.64	3179.94
1419	3282.33
1417.35	3198.24
1415.7	3397.57
1414.05	3422.57
1412.4	3371.83
1410.74	3355.94
1409.09	3161.4
1407.44	3286.34
1405.79	3267.45
1404.14	3339.36
1402.48	3267.52
1400.83	3268.31
1399.18	3305.39
1397.53	3392.34
1395.87	3234.4
1394.22	3280.53
1392.56	3243.55
1390.91	3177.88
1389.25	3314.59
1387.6	3330.46
1385.94	3328.22
1384.28	3288.24
1382.62	3242.25
1380.97	3319.97
1379.31	3322.25
1377.65	3386.34
1375.99	3290.63
1374.33	3182.89
1372.68	3257.52
1371.02	3323.08
1369.36	3302.76
1367.7	3208.68
1366.04	3213.98
1364.37	3199.72
1362.71	3308.86
1361.05	3315.64
1359.39	3277.3
1357.72	3204.4
1356.06	3211.2
1354.4	3296.16
1352.74	3298.43
1351.07	3357.79
1349.41	3388.59
1347.74	3243.67
1346.08	3310.51
1344.41	3300.76
1342.75	3291.02
1341.08	3345.8
1339.41	3303.06
1337.75	3267.83
1336.08	3256.6
1334.41	3320.34
1332.74	3352.57
1331.07	3210.97
1329.41	3202.77
1327.74	3275.44
1326.07	3354.07
1324.4	3366.79
1322.73	3325.63
1321.05	3251.56
1319.38	3295.72
1317.71	3294.98
1316.04	3385.46
1314.37	3356.3
1312.7	3240.46
1311.02	3281.58
1309.35	3345.08
1307.68	3436.94
1306	3371.96
1304.33	3295.06
1302.65	3158.49
1300.98	3259.27
1299.3	3352.53
1297.62	3353.27
1295.95	3179.53
1294.27	3172.85
1292.6	3190.03
1290.92	3241.48
1289.24	3318.23
1287.56	3360.69
1285.88	3155.9
1284.21	3243.04
1282.53	3230.4
1280.85	3339.82
1279.17	3166.46
1277.48	3082.44
1275.8	3138.27
1274.12	3128.64
1272.44	3287.01
1270.76	3183.72
1269.08	3180.03
1267.39	3192.69
1265.71	3178.61
1264.03	3155.62
1262.34	3214.3
1260.66	3213.57
1258.97	3156.46
1257.29	3080.08
1255.6	3199.54
1253.92	3103.91
1252.23	3220.35
1250.54	3121.79
1248.86	3097.37
1247.17	3130.76
1245.48	3177.46
1243.79	3233.02
1242.11	3088.67
1240.42	3129.42
1238.73	3122.8
1237.04	3133.93
1235.35	3164.3
1233.66	3086.68
1231.97	3031.27
1230.28	3046.85
1228.59	3220.57
1226.89	3193.25
1225.2	3264.92
1223.51	3144.55
1221.82	3074.43
1220.12	3253.86
1218.43	3235.41
1216.73	3255.34
1215.04	3127.73
1213.35	3118.18
1211.65	3077.66
1209.96	3197.86
1208.26	3245.78
1206.56	3283.37
1204.87	3166.23
1203.17	3220.02
1201.47	3309.13
1199.77	3220.04
1198.07	3194.29
1196.38	3106.74
1194.68	3166.37
1192.98	3228.91
1191.28	3335.54
1189.58	3192.16
1187.88	3184.09
1186.18	3140.75
1184.47	3212.04
1182.77	3292.12
1181.07	3284.03
1179.37	3193.72
1177.66	3206.21
1175.96	3271.53
1174.26	3300.14
1172.55	3318.47
1170.85	3273.72
1169.14	3272.98
1167.44	3281.04
1165.73	3327.2
1164.03	3298.61
1162.32	3321.3
1160.61	3339.6
1158.91	3171.9
1157.2	3371.76
1155.49	3378.32
1153.78	3305.85
1152.07	3256.82
1150.37	3239.99
1148.66	3294.83
1146.95	3349.65
1145.24	3363.51
1143.53	3340.83
1141.81	3322.54
1140.1	3380.22
1138.39	3461.24
1136.68	3447.32
1134.96	3431.94
1133.25	3346.52
1131.54	3385.16
1129.83	3409.19
1128.11	3443.42
1126.4	3390.15
1124.68	3478.31
1122.97	3499.39
1121.25	3526.28
1119.54	3497.81
1117.82	3550.9
1116.1	3496.22
1114.38	3453.21
1112.67	3392.76
1110.95	3522.96
1109.23	3535.25
1107.51	3490.82
1105.79	3543.83
1104.07	3521.22
1102.35	3609.09
1100.63	3669.31
1098.91	3613.27
1097.19	3618.26
1095.47	3569.52
1093.75	3619.53
1092.03	3556.29
1090.3	3583.06
1088.58	3619.97
1086.86	3594.49
1085.13	3671.99
1083.41	3637.81
1081.68	3570.31
1079.96	3607.18
1078.23	3544.06
1076.51	3677.98
1074.78	3669.9
1073.05	3567.72
1071.33	3513.35
1069.6	3492.29
1067.87	3526.22
1066.14	3538.45
1064.41	3568.02
1062.69	3477.56
1060.96	3527.37
1059.23	3523.68
1057.5	3626.92
1055.77	3519.19
1054.04	3425.96
1052.3	3413.63
1050.57	3542.79
1048.84	3586.73
1047.11	3609
1045.38	3452.37
1043.64	3367.93
1041.91	3537.33
1040.17	3594.2
1038.44	3506.9
1036.71	3392.26
1034.97	3408.78
1033.23	3419.53
1031.5	3616.05
1029.76	3547.56
1028.03	3553.95
1026.29	3376.14
1024.55	3405.58
1022.81	3498.31
1021.07	3543.54
1019.33	3459.34
1017.6	3442.74
1015.86	3326.99
1014.12	3459.86
1012.38	3522.28
1010.63	3396.54
1008.89	3345.51
1007.15	3380.64
1005.41	3642.51
1003.67	3499.63
1001.93	3392.68
1000.18	3456.45
998.439	3477.18
996.695	3568.14
994.951	3465.57
993.205	3358.75
991.461	3363.71
989.715	3408.78
987.969	3463.85
986.223	3500.29
984.477	3420.77
982.729	3384.22
980.982	3394.9
979.234	3514.28
977.486	3423.39
975.736	3353.99
973.988	3376.09
972.238	3333.89
970.488	3355.99
968.738	3413.79
966.988	3361.6
965.236	3262.33
963.484	3337.24
961.734	3402.13
959.98	3338.58
958.229	3247.95
956.475	3295.7
954.723	3322.04
952.969	3234.34
951.215	3207.95
949.459	3400.99
947.705	3244.95
945.949	3229.97
944.193	3300.43
942.438	3342.39
940.68	3259.08
938.924	3298.18
937.166	3199.28
935.408	3318.01
933.65	3332.9
931.891	3272.44
930.133	3248.95
928.373	3262.42
926.613	3295.78
924.854	3356.1
923.092	3302.8
921.33	3223.97
919.57	3301.29
917.809	3404.13
916.045	3299.79
914.283	3270.68
912.52	3217.46
910.756	3289.03
908.992	3288.29
907.229	3259.2
905.463	3302.37
903.699	3196.81
901.934	3286.71
900.168	3239.24
898.4	3261.15
896.635	3324.09
894.867	3248.35
893.1	3220.73
891.332	3324.65
889.564	3329.55
887.795	3379.67
886.025	3217.8
884.256	3221.31
882.486	3181.02
880.717	3290.45
878.945	3245.93
877.174	3201.43
875.402	3226.11
873.631	3205.62
871.859	3268.37
870.086	3260.57
868.312	3228.81
866.539	3170.28
864.766	3289.35
862.992	3308.32
861.217	3276.58
859.441	3205.41
857.666	3128.65
855.891	3222.25
854.113	3262.33
852.338	3215.15
850.561	3218.64
848.783	3210.87
847.004	3128.59
845.227	3333.12
843.447	3291.6
841.668	3154.55
839.889	3155.23
838.109	3174.18
836.328	3323.7
834.547	3262.58
832.766	3233.76
830.984	3188.12
829.203	3243.51
827.42	3272.22
825.637	3281.29
823.854	3197.83
822.07	3183.08
820.287	3218.79
818.502	3281.09
816.717	3217.31
814.932	3229.18
813.146	3249.45
811.359	3278.1
809.574	3259.16
807.787	3333.96
806	3232.49
804.211	3181.41
802.424	3321.89
800.635	3354.67
798.846	3337.14
797.057	3235.78
795.268	3228.06
793.477	3270.61
791.686	3332.69
789.895	3341.7
788.104	3213.94
786.312	3294.13
784.52	3245.95
782.727	3356.77
780.934	3213.79
779.141	3260.44
777.346	3191.41
775.553	3364.84
773.758	3312.53
771.963	3307.59
770.166	3210.76
768.371	3201.68
766.574	3187.03
764.777	3385.26
762.98	3246.77
761.184	3209.87
759.385	3195.23
757.586	3284.85
755.787	3245.19
753.988	3395.89
752.189	3228.42
750.389	3284.62
748.588	3363.01
746.787	3331.7
744.986	3268.48
743.184	3192.8
741.383	3301.66
739.58	3342.51
737.777	3427.71
735.973	3393.65
734.17	3279.22
732.365	3351.91
730.561	3468.9
728.756	3443.17
726.951	3445.15
725.145	3352.98
723.338	3454.63
721.531	3524.41
719.725	3476.56
717.916	3471.62
716.109	3423.8
714.301	3501.82
712.492	3564.59
710.684	3538.9
708.873	3540.84
707.062	3533.12
705.252	3588.93
703.441	3579.82
701.631	3603.84
699.818	3543.67
698.006	3518.02
696.193	3691
694.381	3618.44
692.568	3645.18
690.754	3523.05
688.939	3587
687.125	3696.39
685.311	3825.01
683.494	3561.11
681.68	3636.01
679.863	3628.29
678.047	3701.76
676.229	3762.82
674.412	3689.05
672.594	3604.31
670.775	3729.96
668.957	3755.22
667.137	3823.06
665.318	3889.5
663.498	3843.27
661.678	3755.87
659.855	4002.13
658.035	4036.89
656.213	4041.45
654.391	3976.03
652.568	3896.92
650.744	4070.18
648.922	4124.08
647.098	4016.21
645.273	4018.02
643.449	4147.25
641.623	4242.17
639.799	4376.76
637.973	4236.1
636.146	4215.95
634.318	4362.77
632.492	4478.05
630.664	4557.72
628.836	4475.98
627.008	4536.46
625.178	4570.95
623.35	4709.28
621.52	4769.67
619.689	4742.61
617.859	4701.9
616.027	4915.16
614.195	5025.95
612.363	5027.51
610.531	4997.69
608.699	5063.37
606.865	5213.56
605.031	5320.06
603.197	5307.92
601.363	5233.09
599.529	5331.33
597.693	5606.6
595.857	5701.99
594.021	5676.15
592.186	5693.88
590.348	5872.19
588.51	6057.22
586.672	6097.97
584.834	6141.43
582.996	6255.56
581.156	6320.7
579.316	6663.05
577.477	6651.98
575.637	6481.99
573.795	6439.73
571.953	6875.41
570.111	6909.09
568.27	6931.9
566.428	6985.91
564.584	7061.59
562.74	7385.4
560.896	7471.8
559.053	7486.31
557.207	7518.44
555.361	7664.35
553.516	7803.43
551.67	7987.12
549.824	7830.9
547.977	7582.72
546.129	7767.68
544.281	8108.15
542.434	7969.63
540.584	7936.66
538.736	7757.68
536.887	8034.3
535.035	8267.55
533.186	8025.12
531.334	7874.65
529.482	7666.19
527.631	7957.35
525.779	8039.16
523.926	7824.05
522.074	7573.97
520.221	7703.02
518.365	7790.2
516.512	7762.74
514.656	7356.56
512.803	7345.39
510.945	7340.96
509.09	7257.06
507.232	7336.14
505.377	7120.35
503.52	6963.89
501.66	6994.53
499.803	7162.38
497.943	6962.98
496.084	6642.64
494.225	6663.92
492.365	6726.86
490.504	6820.66
488.645	6542.31
486.781	6288.26
484.92	6476.09
483.059	6514.83
481.195	6510.6
479.332	6334.62
477.469	6126.52
475.604	6210.9
473.74	6460.16
471.875	6139.58
470.01	6013.48
468.145	6030.8
466.277	5883.35
464.41	6009.18
462.543	5908.67
460.676	5734.58
458.809	5579.31
456.939	5666.28
455.07	5731.81
453.201	5644.85
451.332	5598.04
449.461	5525.86
447.59	5567.3
445.719	5652.81
443.848	5378.97
441.975	5288.21
440.104	5344.35
438.23	5420.49
436.355	5315.1
434.482	5197.76
432.607	5140.49
430.732	5112.59
428.857	5220.68
426.982	5068.81
425.105	5036.95
423.23	5011.76
421.354	5131.75
419.475	5061.27
417.598	5088.01
415.719	4956.36
413.84	5129.47
411.961	5100.3
410.08	5246.69
408.201	4970.19
406.32	4834.73
404.439	4915.96
402.557	5110.09
400.676	5015.87
398.793	4896.46
396.91	4850.13
395.027	4998.95
393.143	5025.61
391.258	4897.02
389.373	4731.36
387.488	4813.76
385.604	4975.66
383.717	4860.46
381.83	4804.95
379.943	4616.98
378.055	4837.05
376.168	4879.57
374.279	4871.77
372.391	4609.84
370.5	4578.29
368.611	4656.54
366.721	4691.12
364.83	4635.76
362.939	4550.03
361.047	4535.7
359.154	4537.23
357.262	4616.7
355.369	4573.31
353.477	4416.4
351.582	4613.31
349.688	4670.25
347.793	4588.62
345.896	4433.18
344.002	4465.05
342.105	4581.29
340.209	4564.35
338.311	4532.92
336.414	4359.23
334.516	4517.52
332.617	4582.25
330.717	4460.01
328.818	4457.59
326.918	4474.91
325.018	4564.58
323.117	4488.49
321.215	4442.68
319.312	4328.53
317.41	4315.64
315.508	4371.06
313.604	4496.08
311.701	4354.45
309.797	4287.73
307.891	4323.42
305.986	4292.17
304.08	4329.15
302.174	4168.06
300.268	4236.52
298.361	4248.58
296.453	4328.77
294.545	4166.54
292.637	4090.83
290.727	4089.81
288.818	4204.01
286.908	4367.88
284.998	4190.13
283.086	4118.44
281.176	4236.43
279.264	4262.83
277.352	4374.19
275.438	4177.05
273.525	4174.7
271.611	4259.87
269.697	4339.77
267.781	4165.03
265.867	4124.82
263.951	4202.09
262.035	4288.44
260.119	4301.71
258.201	4167.62
256.283	4002.3
254.365	4175.94
252.447	4212.68
250.527	4083.95
248.607	4002.17
246.688	4053.24
244.768	4145.94
242.846	4107.15
240.926	4133.43
239.002	4023.12
237.08	4122.23
235.158	4222.59
233.234	4095.44
231.311	3995.65
229.385	4068.68
227.461	4224.79
225.535	4141.91
223.609	4085.04
221.684	4094.38
219.756	4121.88
217.828	4199.95
215.9	4226.11
213.973	4097.98
212.043	4054.16
210.113	4187.88
208.184	4223.07
206.254	4013.48
204.322	4015.04
202.391	4098.15
200.459	4165.68
198.527	4064.99
196.594	3975.99
194.66	4105.57
192.727	4147.17
190.793	4241.74
188.857	4221.27
186.922	4029
184.986	4078.32
183.051	4259.31
181.113	4245.3
179.176	4266.14
177.238	4257.29
175.301	4409.67
173.361	4396.92
171.422	4425.42
169.482	4258.02
167.541	4273.67
165.602	4405.22
163.66	4490.35
161.717	4404.21
159.775	4477.72
157.832	4459.82
155.889	4535.84
153.945	4550.08
152	4425.46
150.055	4396.02
148.109	4559.36
146.164	4509.34
144.217	4496.6
142.27	4468.45
140.322	4580.24
138.375	4667.59
136.426	4620.17
134.477	4533.01
132.527	4615.17
130.578	4813.94
128.627	4735.77
126.676	4847.27
124.725	4790.91
122.771	4915.14
120.82	5011.14
118.867	4916.38
116.912	4845.97
114.959	4899.69
113.004	4949.55
111.049	5045.4
109.094	5049.17
107.137	4971.15
105.18	5040.09
103.223	5275.04
101.266	5398.76
99.3066	5246.68
97.3477	5295.05
95.3887	5553.91
93.4277	5489.92
91.4668	5419.58
89.5059	5217.98
87.5449	5467.65
85.582	5599.97
83.6211	5639.22
81.6562	5647.89
79.6934	5697.29
77.7285	5816.67
75.7637	6011.05
73.7988	5704.12
71.834	5817.03
69.8672	6023.97
67.9004	6162.15
65.9336	6027.06
63.9648	5836.13
61.9961	5453.53
60.0273	4890.85
58.0586	3762.34
56.0879	2668.7
54.1172	1703.8
52.1465	1112.3
50.1738	674.554
48.2031	398.03
46.2305	219.237
44.2559	143.162
42.2832	88.6598
40.3086	70.9083