File: PeakFitting/xrdData/jacobson_raman/C3_02136_532nm_5sec_5per_50x.txt
#Wave		#Intensity
1818.91	1339.55
1817.34	1377.87
1815.78	1364.84
1814.21	1281.59
1812.64	1345.17
1811.07	1306.62
1809.51	1328.7
1807.94	1318.88
1806.37	1361.68
1804.8	1369.39
1803.23	1284.65
1801.67	1325.83
1800.1	1328.76
1798.53	1420.9
1796.96	1371.25
1795.39	1356.65
1793.82	1335.7
1792.25	1297.24
1790.68	1381.33
1789.1	1373.11
1787.53	1352.16
1785.96	1335.99
1784.39	1323.01
1782.82	1327.52
1781.24	1362.23
1779.67	1452.55
1778.1	1350.58
1776.52	1372.55
1774.95	1373.87
1773.38	1424.42
1771.8	1420.96
1770.22	1371.48
1768.65	1402.95
1767.07	1356.66
1765.5	1402.4
1763.92	1340.26
1762.35	1385.99
1760.77	1409.49
1759.19	1366.42
1757.62	1377.24
1756.04	1346.86
1754.46	1371.94
1752.88	1417.6
1751.3	1352.4
1749.72	1371.13
1748.14	1362.94
1746.56	1410.15
1744.98	1382.97
1743.4	1349.47
1741.82	1344.45
1740.24	1374.23
1738.66	1373.96
1737.08	1346.81
1735.5	1409.76
1733.92	1412.64
1732.33	1372.86
1730.75	1334.68
1729.17	1383.36
1727.58	1424.13
1726	1434.9
1724.42	1426.72
1722.83	1401.18
1721.25	1358.31
1719.66	1353.3
1718.08	1441.34
1716.49	1370.1
1714.9	1401.35
1713.32	1421.55
1711.73	1394.48
1710.14	1392.62
1708.56	1414.39
1706.97	1434.57
1705.38	1418.54
1703.79	1416.68
1702.21	1380.19
1700.62	1406.66
1699.03	1351.31
1697.44	1429.68
1695.85	1355.48
1694.26	1432.24
1692.67	1395.79
1691.08	1378.22
1689.49	1434.5
1687.89	1391.8
1686.3	1454.33
1684.71	1378.66
1683.12	1455.31
1681.53	1450.3
1679.93	1434.31
1678.34	1476.38
1676.74	1396.07
1675.15	1380.1
1673.56	1509.96
1671.96	1461.05
1670.37	1440.38
1668.77	1425.98
1667.18	1363.01
1665.58	1514.67
1663.98	1439.19
1662.39	1531.27
1660.79	1424.5
1659.19	1444.55
1657.59	1408.27
1656	1426.75
1654.4	1499.96
1652.8	1463.68
1651.2	1522.79
1649.6	1447.45
1648	1417.45
1646.4	1512.47
1644.8	1548.08
1643.2	1500.9
1641.6	1449.06
1640	1494.03
1638.4	1496.84
1636.79	1537.1
1635.19	1574.23
1633.59	1553.62
1631.98	1506.51
1630.38	1496.84
1628.78	1510.55
1627.17	1553.88
1625.57	1544.2
1623.96	1537.65
1622.36	1517.08
1620.75	1499.63
1619.15	1521.11
1617.54	1615.74
1615.94	1624.74
1614.33	1527.93
1612.72	1574.28
1611.12	1606.6
1609.51	1649.8
1607.9	1644.79
1606.29	1510.78
1604.68	1555.52
1603.07	1603.36
1601.46	1655.83
1599.85	1585.59
1598.24	1613.21
1596.63	1609.76
1595.02	1548.89
1593.41	1604.42
1591.8	1630.46
1590.19	1599.09
1588.58	1528.97
1586.96	1561.2
1585.35	1621.32
1583.74	1579.14
1582.12	1603.59
1580.51	1550.58
1578.89	1595.16
1577.28	1559.21
1575.67	1611.51
1574.05	1592.6
1572.44	1553.57
1570.82	1550.15
1569.2	1607.04
1567.59	1619.07
1565.97	1640.37
1564.35	1616.83
1562.73	1571.67
1561.12	1554.34
1559.5	1549.37
1557.88	1575.3
1556.26	1608.93
1554.64	1647.18
1553.02	1552.67
1551.4	1546.17
1549.78	1619.89
1548.16	1616.46
1546.54	1599.15
1544.92	1611.14
1543.29	1583.04
1541.67	1547.26
1540.05	1586.99
1538.43	1617.45
1536.8	1587.84
1535.18	1555.17
1533.55	1565.61
1531.93	1496.01
1530.31	1552.62
1528.68	1581.52
1527.06	1564.26
1525.43	1545.46
1523.8	1598.94
1522.18	1623.19
1520.55	1609.01
1518.92	1599.44
1517.3	1608.31
1515.67	1515.82
1514.04	1530.84
1512.41	1564.28
1510.78	1562.41
1509.15	1592.76
1507.52	1534.12
1505.89	1539.92
1504.26	1573.32
1502.63	1591.38
1501	1595.63
1499.37	1526.32
1497.74	1581.15
1496.11	1537.91
1494.47	1606.49
1492.84	1572.46
1491.21	1625.69
1489.57	1499.84
1487.94	1524
1486.31	1575.68
1484.67	1631.93
1483.04	1564.29
1481.4	1534.9
1479.77	1554.43
1478.13	1534.23
1476.49	1546.12
1474.86	1528.98
1473.22	1575.98
1471.58	1586.33
1469.95	1502.03
1468.31	1532.22
1466.67	1545.62
1465.03	1542.23
1463.39	1474.78
1461.75	1518.68
1460.11	1538.17
1458.47	1667.38
1456.83	1627.39
1455.19	1547.82
1453.55	1527.68
1451.91	1550.18
1450.26	1578.77
1448.62	1497.75
1446.98	1568.95
1445.34	1500.14
1443.69	1483.08
1442.05	1598.33
1440.4	1613.18
1438.76	1591.55
1437.11	1542.56
1435.47	1543.74
1433.82	1558.59
1432.18	1625.08
1430.53	1562.46
1428.88	1578.82
1427.24	1555.7
1425.59	1608.47
1423.94	1582.33
1422.29	1557.71
1420.64	1583.14
1419	1572.18
1417.35	1527.88
1415.7	1547.24
1414.05	1619.62
1412.4	1632.9
1410.74	1529.56
1409.09	1612.5
1407.44	1666.63
1405.79	1595.13
1404.14	1647.74
1402.48	1577.79
1400.83	1568.37
1399.18	1614.89
1397.53	1655.35
1395.87	1647.43
1394.22	1536.76
1392.56	1592.31
1390.91	1625.19
1389.25	1636.91
1387.6	1622.96
1385.94	1630.15
1384.28	1599.6
1382.62	1609.81
1380.97	1582.3
1379.31	1627.19
1377.65	1649.45
1375.99	1599.34
1374.33	1633.64
1372.68	1553.43
1371.02	1622.37
1369.36	1609.97
1367.7	1620.15
1366.04	1670.97
1364.37	1551.7
1362.71	1563.39
1361.05	1558.53
1359.39	1649.93
1357.72	1587.91
1356.06	1631.16
1354.4	1576.69
1352.74	1634.94
1351.07	1711.2
1349.41	1671.76
1347.74	1585.79
1346.08	1613.97
1344.41	1625.61
1342.75	1664.27
1341.08	1666.9
1339.41	1642.53
1337.75	1613.67
1336.08	1644.79
1334.41	1648.93
1332.74	1680.03
1331.07	1639.2
1329.41	1634.34
1327.74	1607.02
1326.07	1621.63
1324.4	1736.54
1322.73	1668.8
1321.05	1625.03
1319.38	1665.06
1317.71	1661.7
1316.04	1635.91
1314.37	1714.78
1312.7	1636.67
1311.02	1687.11
1309.35	1682.25
1307.68	1652
1306	1654.62
1304.33	1672.17
1302.65	1624.03
1300.98	1704.25
1299.3	1659.11
1297.62	1703.49
1295.95	1644.94
1294.27	1596.86
1292.6	1596.51
1290.92	1694.51
1289.24	1586.85
1287.56	1587.98
1285.88	1586.14
1284.21	1614.08
1282.53	1592.87
1280.85	1711.58
1279.17	1696.32
1277.48	1637.92
1275.8	1624.17
1274.12	1658
1272.44	1577.35
1270.76	1710.77
1269.08	1689.58
1267.39	1588.17
1265.71	1599.7
1264.03	1609.74
1262.34	1685.09
1260.66	1617.92
1258.97	1619.04
1257.29	1584.55
1255.6	1636.11
1253.92	1671.34
1252.23	1663.55
1250.54	1626.12
1248.86	1627.23
1247.17	1619.46
1245.48	1654.65
1243.79	1725.36
1242.11	1670.19
1240.42	1657.97
1238.73	1673.88
1237.04	1700.14
1235.35	1702.71
1233.66	1686.06
1231.97	1667.94
1230.28	1639.47
1228.59	1652.41
1226.89	1683.07
1225.2	1727.01
1223.51	1695.6
1221.82	1625.82
1220.12	1687.46
1218.43	1738.74
1216.73	1742.77
1215.04	1718.78
1213.35	1659.39
1211.65	1659.01
1209.96	1786.91
1208.26	1786.51
1206.56	1750.74
1204.87	1681.09
1203.17	1708.7
1201.47	1786.37
1199.77	1825.72
1198.07	1826.78
1196.38	1720.41
1194.68	1731.79
1192.98	1796.13
1191.28	1829.55
1189.58	1802.67
1187.88	1774.33
1186.18	1760.7
1184.47	1747.08
1182.77	1814.26
1181.07	1878.48
1179.37	1781.14
1177.66	1815.97
1175.96	1771.53
1174.26	1862.11
1172.55	1788.34
1170.85	1840.73
1169.14	1816.86
1167.44	1778.33
1165.73	1843.89
1164.03	1827.35
1162.32	1824.01
1160.61	1842.64
1158.91	1817.33
1157.2	1828.63
1155.49	1864.81
1153.78	1928.78
1152.07	1891.77
1150.37	1862.08
1148.66	1920.16
1146.95	1913.88
1145.24	1909.06
1143.53	1915.94
1141.81	1871.67
1140.1	1916.53
1138.39	1983.28
1136.68	1914.2
1134.96	1963.4
1133.25	1948.37
1131.54	1937.71
1129.83	1937.27
1128.11	2012.68
1126.4	1964.1
1124.68	1940.33
1122.97	1967.59
1121.25	1993.37
1119.54	1991.46
1117.82	2076.94
1116.1	2044.44
1114.38	1974.1
1112.67	2058.07
1110.95	2060.51
1109.23	2080.42
1107.51	2033.4
1105.79	2051.85
1104.07	2048.47
1102.35	2079.99
1100.63	2160.9
1098.91	2035.46
1097.19	2064.05
1095.47	2004.04
1093.75	2148.78
1092.03	2036.52
1090.3	2110.07
1088.58	2074.77
1086.86	2064.15
1085.13	2157.95
1083.41	2128.46
1081.68	2175.82
1079.96	2040.54
1078.23	2116.87
1076.51	2138.12
1074.78	2243.36
1073.05	2102.4
1071.33	2126.54
1069.6	2095.66
1067.87	2087.95
1066.14	2141.01
1064.41	2095.68
1062.69	2129.91
1060.96	2096.18
1059.23	2056.68
1057.5	2070.67
1055.77	2080.31
1054.04	2023.51
1052.3	2017.28
1050.57	2122.21
1048.84	2053.89
1047.11	2079.4
1045.38	2093.35
1043.64	2036.63
1041.91	2103.94
1040.17	2159.69
1038.44	2022.27
1036.71	2096.75
1034.97	2042.96
1033.23	1994.97
1031.5	2115.48
1029.76	2053.09
1028.03	2023.84
1026.29	2078.06
1024.55	2024.36
1022.81	2038.28
1021.07	2065.15
1019.33	2070.43
1017.6	2067.08
1015.86	1993.32
1014.12	2102.07
1012.38	2067.11
1010.63	1947.44
1008.89	2076.23
1007.15	2001.11
1005.41	2055.19
1003.67	2063.34
1001.93	2045.65
1000.18	2076.74
998.439	2026.08
996.695	2095.87
994.951	2043.8
993.205	2092.05
991.461	2042.87
989.715	1993.71
987.969	2059.12
986.223	2068.68
984.477	2035.29
982.729	1991.9
980.982	1992.88
979.234	1972.4
977.486	2052.03
975.736	1981.51
973.988	1961.05
972.238	1944.89
970.488	1997.31
968.738	1989.71
966.988	2046.38
965.236	1943.12
963.484	2005.48
961.734	1957.94
959.98	1951.78
958.229	1991.28
956.475	1879.59
954.723	1889.15
952.969	1890.14
951.215	1953.84
949.459	2001.84
947.705	1950.11
945.949	1874.18
944.193	1880.88
942.438	1981.52
940.68	2003.84
938.924	1943.62
937.166	1923.26
935.408	1892.96
933.65	1957.94
931.891	1968.86
930.133	1976.94
928.373	1892.66
926.613	1917.8
924.854	1958.55
923.092	2014.9
921.33	1963.34
919.57	1887.67
917.809	1902.85
916.045	1932.21
914.283	1977.16
912.52	1919.99
910.756	1967.75
908.992	1865.25
907.229	1965.44
905.463	1983.41
903.699	1946.13
901.934	1910.28
900.168	1928.25
898.4	1924.99
896.635	2016.53
894.867	1908.55
893.1	1909.53
891.332	1933.13
889.564	1969.45
887.795	1954.87
886.025	1862.57
884.256	1962.45
882.486	1922.46
880.717	1885.3
878.945	1932.88
877.174	1957.84
875.402	1803.57
873.631	1883.58
871.859	1950.86
870.086	1963.11
868.312	1873.84
866.539	1850.85
864.766	1832.11
862.992	1916.23
861.217	1917.21
859.441	1915.36
857.666	1844.52
855.891	1906.04
854.113	1849.31
852.338	1922.06
850.561	1917.4
848.783	1855.08
847.004	1823.72
845.227	1911.87
843.447	1879.11
841.668	1891.32
839.889	1786.94
838.109	1842.71
836.328	1878.8
834.547	1944.35
832.766	1814.78
830.984	1821.38
829.203	1874.28
827.42	1915.93
825.637	1928.11
823.854	1884.21
822.07	1930.03
820.287	1891.75
818.502	1926.35
816.717	1883.89
814.932	1929.67
813.146	1929.23
811.359	1955.38
809.574	1905.96
807.787	1927.9
806	1940.05
804.211	1897.66
802.424	1939.17
800.635	1945.71
798.846	1876.79
797.057	1956
795.268	1916.44
793.477	1941.14
791.686	1992.35
789.895	1957
788.104	1858.86
786.312	1897.51
784.52	1849.64
782.727	1898.03
780.934	1942.21
779.141	1945.95
777.346	1924.6
775.553	1872.61
773.758	1881.93
771.963	2009.62
770.166	1940.94
768.371	1855.58
766.574	1935.87
764.777	1931.26
762.98	1930.81
761.184	1856.66
759.385	1892.39
757.586	1953.12
755.787	1980.47
753.988	1956.39
752.189	1862.87
750.389	1874.94
748.588	1927.27
746.787	1993.47
744.986	1890.3
743.184	1910.68
741.383	1886.66
739.58	1930.61
737.777	1938.49
735.973	2001.81
734.17	2024.91
732.365	1937.15
730.561	1954.72
728.756	1973.66
726.951	2042.44
725.145	1958.91
723.338	1975.07
721.531	2067.32
719.725	2047.48
717.916	2027.64
716.109	1987.08
714.301	2057.13
712.492	2117.47
710.684	2078.29
708.873	2110.97
707.062	1959.93
705.252	2155.56
703.441	2131.6
701.631	2172.52
699.818	2149.94
698.006	2025.28
696.193	2045.5
694.381	2100.19
692.568	2194.83
690.754	2093.7
688.939	2057.39
687.125	2078.96
685.311	2230
683.494	2149.61
681.68	2151.87
679.863	2134.85
678.047	2182.53
676.229	2232.93
674.412	2242.04
672.594	2197.52
670.775	2170.89
668.957	2225.37
667.137	2289.44
665.318	2326.01
663.498	2243.05
661.678	2291.97
659.855	2349.11
658.035	2307.38
656.213	2380.95
654.391	2262.41
652.568	2427.86
650.744	2424.56
648.922	2448.67
647.098	2457.7
645.273	2361.2
643.449	2426.42
641.623	2529.96
639.799	2559.5
637.973	2494.56
636.146	2535.05
634.318	2615.2
632.492	2732.26
630.664	2691.95
628.836	2762.44
627.008	2789.14
625.178	2850.01
623.35	2943.64
621.52	2888.31
619.689	2883.54
617.859	2944.32
616.027	3044.67
614.195	3065.8
612.363	3175.63
610.531	3161.25
608.699	3206.89
606.865	3217.05
605.031	3360.83
603.197	3456.82
601.363	3376.98
599.529	3512.44
597.693	3596.07
595.857	3735.5
594.021	3843.55
592.186	3789.57
590.348	3930.22
588.51	3985.08
586.672	4132.42
584.834	4128.74
582.996	4133.21
581.156	4347.01
579.316	4521.3
577.477	4673.78
575.637	4568.09
573.795	4539.86
571.953	4761.46
570.111	4921.88
568.27	4912.59
566.428	4880.23
564.584	4978.11
562.74	5195.28
560.896	5336.42
559.053	5282.3
557.207	5316.3
555.361	5472.22
553.516	5541.37
551.67	5510.27
549.824	5540.12
547.977	5400.76
546.129	5475.27
544.281	5611.98
542.434	5625.54
540.584	5570.13
538.736	5368.73
536.887	5540.48
535.035	5658.09
533.186	5556.79
531.334	5493.34
529.482	5324.6
527.631	5358.45
525.779	5471.92
523.926	5288.45
522.074	5122.61
520.221	5240.1
518.365	5108.06
516.512	5186.4
514.656	5062.52
512.803	4809.34
510.945	4785.3
509.09	4886.53
507.232	4831.51
505.377	4645.93
503.52	4538.5
501.66	4557.61
499.803	4549.81
497.943	4521.83
496.084	4372.85
494.225	4252.17
492.365	4241.75
490.504	4365.71
488.645	4286.76
486.781	4060.1
484.92	4096.74
483.059	4044.75
481.195	4090.76
479.332	3963.66
477.469	3898.33
475.604	3847.78
473.74	3970.22
471.875	3917
470.01	3824.93
468.145	3794.54
466.277	3741.4
464.41	3711.04
462.543	3766.39
460.676	3548.64
458.809	3495.6
456.939	3485.4
455.07	3681.2
453.201	3443.61
451.332	3465.52
449.461	3403.2
447.59	3421.1
445.719	3449.67
443.848	3317.95
441.975	3285.1
440.104	3246.93
438.23	3378.3
436.355	3300.09
434.482	3177.89
432.607	3126.44
430.732	3164.36
428.857	3239.59
426.982	3170.84
425.105	3051.48
423.23	3096.04
421.354	3140.58
419.475	3131.84
417.598	3135.08
415.719	3075.76
413.84	3003.17
411.961	3100.89
410.08	3157.33
408.201	2975.73
406.32	2971.03
404.439	3089.92
402.557	3057.28
400.676	3076.47
398.793	2923
396.91	2958.14
395.027	3013.18
393.143	3029.7
391.258	3013.04
389.373	2899.57
387.488	2859.08
385.604	2935.28
383.717	2913.36
381.83	2940.48
379.943	2739.72
378.055	2841.04
376.168	2880.07
374.279	2868.78
372.391	2813.82
370.5	2743
368.611	2783.34
366.721	2712.57
364.83	2702.65
362.939	2692.74
361.047	2636.57
359.154	2716.53
357.262	2812.29
355.369	2649.17
353.477	2630.03
351.582	2638.63
349.688	2752.79
347.793	2719.14
345.896	2673.62
344.002	2596.48
342.105	2665.72
340.209	2675.61
338.311	2597.21
336.414	2616.33
334.516	2615.68
332.617	2621.62
330.717	2711.81
328.818	2605.86
326.918	2589.42
325.018	2620.36
323.117	2668.37
321.215	2595.4
319.312	2575.04
317.41	2504.75
315.508	2588.22
313.604	2553.42
311.701	2513.4
309.797	2405.12
307.891	2517.4
305.986	2501.03
304.08	2492.54
302.174	2438.15
300.268	2402.14
298.361	2451.35
296.453	2480.89
294.545	2380.69
292.637	2360.45
290.727	2357.24
288.818	2429.97
286.908	2472.56
284.998	2422.22
283.086	2443.85
281.176	2455.01
279.264	2425.63
277.352	2453.78
275.438	2369.52
273.525	2370.24
271.611	2466.31
269.697	2396.47
267.781	2369.76
265.867	2346.97
263.951	2354.21
262.035	2455.38
260.119	2527.81
258.201	2343.31
256.283	2371.4
254.365	2400.78
252.447	2371.5
250.527	2391.75
248.607	2324.72
246.688	2381.42
244.768	2363.9
242.846	2299.53
240.926	2382.22
239.002	2324.38
237.08	2391.41
235.158	2375.21
233.234	2344.71
231.311	2266.15
229.385	2383.79
227.461	2339.02
225.535	2400.75
223.609	2365.09
221.684	2319.07
219.756	2309.39
217.828	2397.01
215.9	2449.56
213.973	2255.77
212.043	2313.51
210.113	2232.58
208.184	2327.87
206.254	2244.39
204.322	2320.2
202.391	2273.01
200.459	2410.89
198.527	2352.05
196.594	2307.47
194.66	2345.67
192.727	2354.12
190.793	2343.17
188.857	2334.81
186.922	2317.42
184.986	2312.94
183.051	2352.37
181.113	2391.77
179.176	2352.44
177.238	2427.95
175.301	2424.74
173.361	2525.97
171.422	2411.87
169.482	2376.45
167.541	2458.29
165.602	2509.17
163.66	2574.2
161.717	2549.06
159.775	2460.88
157.832	2483.4
155.889	2619.1
153.945	2527.11
152	2460.88
150.055	2502.65
148.109	2603.51
146.164	2589.98
144.217	2544.35
142.27	2551.38
140.322	2577.67
138.375	2609.08
136.426	2609.67
134.477	2601.29
132.527	2523.66
130.578	2674.27
128.627	2740.21
126.676	2645.95
124.725	2722.11
122.771	2766.21
120.82	2766.76
118.867	2846.66
116.912	2784.48
114.959	2694.19
113.004	2814.97
111.049	2893.5
109.094	2894.01
107.137	2881.73
105.18	2878.41
103.223	2931.28
101.266	2961.15
99.3066	2934.82
97.3477	3033.58
95.3887	3088.91
93.4277	3128.9
91.4668	3055.37
89.5059	2960.21
87.5449	3018.04
85.582	3154.84
83.6211	3139.98
81.6562	3153.14
79.6934	3121.73
77.7285	3260.9
75.7637	3298.19
73.7988	3209.52
71.834	3265.88
69.8672	3394.68
67.9004	3430.62
65.9336	3355.99
63.9648	3285.21
61.9961	2994.74
60.0273	2628.26
58.0586	2015.72
56.0879	1414.93
54.1172	896.936
52.1465	593.567
50.1738	363.904
48.2031	216.761
46.2305	140.666
44.2559	115.289
42.2832	70.9278
40.3086	37.9866