File: PeakFitting/xrdData/jacobson_raman/C3_02125_532nm_5sec_10per_50x.txt
#Wave		#Intensity
1818.91	2556.17
1817.34	2573.73
1815.78	2592.4
1814.21	2682.87
1812.64	2623.32
1811.07	2592.5
1809.51	2571.27
1807.94	2632.97
1806.37	2686.68
1804.8	2676.6
1803.23	2604.36
1801.67	2560.83
1800.1	2612.92
1798.53	2773.3
1796.96	2761.61
1795.39	2724.46
1793.82	2567.91
1792.25	2627.9
1790.68	2684.68
1789.1	2708.02
1787.53	2612.05
1785.96	2600.41
1784.39	2595.13
1782.82	2621.66
1781.24	2676.78
1779.67	2793.86
1778.1	2596.29
1776.52	2570.36
1774.95	2596.86
1773.38	2640.81
1771.8	2767.31
1770.22	2654.06
1768.65	2748.76
1767.07	2635.57
1765.5	2676.29
1763.92	2718.59
1762.35	2784.66
1760.77	2728.62
1759.19	2718.57
1757.62	2768.74
1756.04	2752.35
1754.46	2701.11
1752.88	2718
1751.3	2677.87
1749.72	2702.67
1748.14	2657.81
1746.56	2630.38
1744.98	2716.88
1743.4	2801.77
1741.82	2677.84
1740.24	2655.16
1738.66	2665.7
1737.08	2796.37
1735.5	2746.82
1733.92	2667.26
1732.33	2753.62
1730.75	2768.86
1729.17	2798.31
1727.58	2761.43
1726	2787.71
1724.42	2791.89
1722.83	2687.18
1721.25	2724.5
1719.66	2684.52
1718.08	2775.44
1716.49	2752.81
1714.9	2761.71
1713.32	2745.39
1711.73	2667.63
1710.14	2747.43
1708.56	2857.13
1706.97	2788.84
1705.38	2651.3
1703.79	2668.07
1702.21	2719.46
1700.62	2670.13
1699.03	2712.06
1697.44	2755.55
1695.85	2707.81
1694.26	2625.51
1692.67	2738.15
1691.08	2745.44
1689.49	2856.44
1687.89	2706.62
1686.3	2756.32
1684.71	2738.49
1683.12	2803.86
1681.53	2935.13
1679.93	2914.13
1678.34	2753.5
1676.74	2787.44
1675.15	2742.96
1673.56	2816.09
1671.96	2893.89
1670.37	2725.59
1668.77	2657.64
1667.18	2780.86
1665.58	2864.87
1663.98	2912.83
1662.39	2868.38
1660.79	2842.74
1659.19	2871.89
1657.59	2753.94
1656	2819.08
1654.4	2887.31
1652.8	2899.22
1651.2	2721.95
1649.6	2821.42
1648	2839.59
1646.4	2820.25
1644.8	2960.26
1643.2	2815.95
1641.6	2788.82
1640	2822.58
1638.4	2851.65
1636.79	2940
1635.19	2908.19
1633.59	2838.94
1631.98	2805.6
1630.38	2853.35
1628.78	2936.93
1627.17	2881.77
1625.57	2884.28
1623.96	2805.78
1622.36	2786.5
1620.75	2880.9
1619.15	2920.78
1617.54	2820.54
1615.94	2860.41
1614.33	2822.47
1612.72	2756.54
1611.12	2833.72
1609.51	2971.51
1607.9	2844.96
1606.29	2836.59
1604.68	2809.57
1603.07	2784.12
1601.46	2862.75
1599.85	2849.72
1598.24	2836.7
1596.63	2756.93
1595.02	2684.95
1593.41	2869.03
1591.8	2854.46
1590.19	2906.59
1588.58	2910.63
1586.96	2844.89
1585.35	2864.44
1583.74	2902.57
1582.12	2779.55
1580.51	2875
1578.89	2772.18
1577.28	2777.78
1575.67	2860.78
1574.05	2949.94
1572.44	2848.73
1570.82	2793.98
1569.2	2847.51
1567.59	2964.43
1565.97	2948.34
1564.35	2987.9
1562.73	2879.08
1561.12	2802.75
1559.5	2905.65
1557.88	2833.99
1556.26	2912.13
1554.64	2950.1
1553.02	2904.71
1551.4	2853.16
1549.78	2880.32
1548.16	2939.85
1546.54	3011.7
1544.92	2892.34
1543.29	2862.43
1541.67	2886.47
1540.05	2908.96
1538.43	2917.58
1536.8	2921.57
1535.18	2939.42
1533.55	2832.56
1531.93	2984.32
1530.31	2945.21
1528.68	2889.19
1527.06	2979.31
1525.43	2898.71
1523.8	2931.9
1522.18	2843.65
1520.55	2932.17
1518.92	3020.65
1517.3	2864.85
1515.67	2861.16
1514.04	2914.28
1512.41	2912.11
1510.78	2994.36
1509.15	2814.18
1507.52	2947.04
1505.89	2911.12
1504.26	2962.63
1502.63	2983.45
1501	2939.88
1499.37	2871.81
1497.74	2825.23
1496.11	2902.73
1494.47	3052.18
1492.84	3008.65
1491.21	2876.35
1489.57	2812.97
1487.94	2855.2
1486.31	2883.65
1484.67	3000.78
1483.04	2942.02
1481.4	2871.06
1479.77	2842.92
1478.13	2886.61
1476.49	2947.09
1474.86	2972.42
1473.22	2864.87
1471.58	2838.29
1469.95	2952.15
1468.31	2850.78
1466.67	2892.88
1465.03	2899.88
1463.39	2888.56
1461.75	2848.29
1460.11	2841.57
1458.47	2947.63
1456.83	2925.65
1455.19	2856.46
1453.55	2869.54
1451.91	2916.11
1450.26	2880.46
1448.62	2972.67
1446.98	2908.11
1445.34	2924.2
1443.69	2850.55
1442.05	2947.25
1440.4	2964.85
1438.76	2988.52
1437.11	2905.79
1435.47	2894.52
1433.82	2972.87
1432.18	2978.29
1430.53	3020.15
1428.88	2945.1
1427.24	2904.99
1425.59	2939.25
1423.94	2953.78
1422.29	2954.64
1420.64	2972.19
1419	2909.37
1417.35	2832.94
1415.7	2955.07
1414.05	2990.78
1412.4	3011.32
1410.74	2922.82
1409.09	2869.18
1407.44	3007.81
1405.79	2985.96
1404.14	3035.23
1402.48	2993.72
1400.83	2921.97
1399.18	2992.39
1397.53	2972.08
1395.87	3000.13
1394.22	3067.47
1392.56	3001.83
1390.91	2924.13
1389.25	2941.61
1387.6	2942.46
1385.94	3014.26
1384.28	2974.36
1382.62	2923.91
1380.97	2816.17
1379.31	2987.46
1377.65	3083.29
1375.99	2909.26
1374.33	2979.44
1372.68	2889.88
1371.02	3000.72
1369.36	2897.64
1367.7	2997.88
1366.04	2906.89
1364.37	2912.26
1362.71	2895.06
1361.05	2965.12
1359.39	2990.03
1357.72	2950.27
1356.06	2893.99
1354.4	2930.92
1352.74	2996.39
1351.07	3099.38
1349.41	3020.59
1347.74	2937.32
1346.08	2921.65
1344.41	3032.08
1342.75	2951.87
1341.08	3011.22
1339.41	2950.55
1337.75	2943.89
1336.08	2905.75
1334.41	3020.53
1332.74	3045.33
1331.07	2905.31
1329.41	2913.65
1327.74	2975.9
1326.07	2951.28
1324.4	3172.18
1322.73	3036.77
1321.05	3073.5
1319.38	2956.12
1317.71	3109.52
1316.04	3117.79
1314.37	3114.11
1312.7	3025.23
1311.02	3003.63
1309.35	2973.08
1307.68	3082.94
1306	3074.79
1304.33	3139.79
1302.65	3052.51
1300.98	3084.66
1299.3	3121.27
1297.62	3153.39
1295.95	3072.15
1294.27	3034.19
1292.6	2991.77
1290.92	3110.33
1289.24	3172.21
1287.56	3092.55
1285.88	3175.26
1284.21	3001.82
1282.53	3062.18
1280.85	3091.27
1279.17	3215.56
1277.48	3069.05
1275.8	3072.83
1274.12	2999.27
1272.44	3123.48
1270.76	3200.07
1269.08	3114.65
1267.39	3051.55
1265.71	3104.34
1264.03	3134.83
1262.34	3174.21
1260.66	3216.54
1258.97	3138.65
1257.29	3071.18
1255.6	3183.23
1253.92	3124.67
1252.23	3226.28
1250.54	3181.08
1248.86	3137.39
1247.17	3201.88
1245.48	3307.81
1243.79	3275.97
1242.11	3239.7
1240.42	3209.36
1238.73	3298.92
1237.04	3290.78
1235.35	3387.68
1233.66	3307.05
1231.97	3298.91
1230.28	3333.65
1228.59	3285.6
1226.89	3290.77
1225.2	3344.69
1223.51	3298.15
1221.82	3276.74
1220.12	3333.58
1218.43	3419.91
1216.73	3476.69
1215.04	3335.75
1213.35	3411.7
1211.65	3397.66
1209.96	3506
1208.26	3596.6
1206.56	3557.47
1204.87	3491.84
1203.17	3485.16
1201.47	3625.76
1199.77	3577.82
1198.07	3659.45
1196.38	3623.31
1194.68	3585.7
1192.98	3639.32
1191.28	3710.57
1189.58	3795.01
1187.88	3667.73
1186.18	3735.98
1184.47	3670.49
1182.77	3787.18
1181.07	3861.23
1179.37	3784.01
1177.66	3775.81
1175.96	3761.75
1174.26	3884.16
1172.55	3890.62
1170.85	3856.01
1169.14	3943.12
1167.44	3849.87
1165.73	3989.71
1164.03	3972.69
1162.32	4011.35
1160.61	4008.98
1158.91	3953.89
1157.2	4002.78
1155.49	4114.58
1153.78	4060.97
1152.07	3975.19
1150.37	3962.59
1148.66	4080.16
1146.95	4242.99
1145.24	4293.19
1143.53	4156.31
1141.81	4145.14
1140.1	4085.77
1138.39	4277.63
1136.68	4323.38
1134.96	4261.1
1133.25	4149.22
1131.54	4294.19
1129.83	4303.43
1128.11	4406.01
1126.4	4434.17
1124.68	4310.72
1122.97	4443.83
1121.25	4530.25
1119.54	4521.94
1117.82	4421.88
1116.1	4524.27
1114.38	4504.32
1112.67	4554.24
1110.95	4580.86
1109.23	4552.18
1107.51	4497.34
1105.79	4478.87
1104.07	4522.92
1102.35	4742.84
1100.63	4698.17
1098.91	4604.12
1097.19	4691.68
1095.47	4660.13
1093.75	4765.06
1092.03	4743.66
1090.3	4716.46
1088.58	4670.42
1086.86	4670.81
1085.13	4739.36
1083.41	4764.39
1081.68	4754.61
1079.96	4682.52
1078.23	4604.67
1076.51	4739.79
1074.78	4841.55
1073.05	4814.39
1071.33	4706.18
1069.6	4561.83
1067.87	4741.66
1066.14	4593.03
1064.41	4555.84
1062.69	4631.44
1060.96	4578.35
1059.23	4596.1
1057.5	4691.87
1055.77	4585.35
1054.04	4413.88
1052.3	4485.08
1050.57	4602.44
1048.84	4698.11
1047.11	4620.56
1045.38	4466.59
1043.64	4335.76
1041.91	4542.43
1040.17	4479.41
1038.44	4514.43
1036.71	4486.03
1034.97	4424.5
1033.23	4341.39
1031.5	4537.7
1029.76	4553.95
1028.03	4361.47
1026.29	4284.21
1024.55	4335.03
1022.81	4431.86
1021.07	4462.5
1019.33	4314.83
1017.6	4346.91
1015.86	4307.12
1014.12	4393.79
1012.38	4368.38
1010.63	4297.01
1008.89	4273.06
1007.15	4306.55
1005.41	4406.03
1003.67	4393.56
1001.93	4297.88
1000.18	4312.68
998.439	4240.01
996.695	4269.15
994.951	4269.61
993.205	4172.64
991.461	4081.44
989.715	4099.13
987.969	4126.84
986.223	4148.81
984.477	4219.43
982.729	4191.29
980.982	4057.28
979.234	4122.16
977.486	4189.86
975.736	4044.51
973.988	3999.29
972.238	3926.93
970.488	4078.91
968.738	4109.4
966.988	4108.47
965.236	3913.37
963.484	3978.14
961.734	3998.64
959.98	4093.32
958.229	4038.19
956.475	3884.68
954.723	3876.67
952.969	3798.81
951.215	3856.38
949.459	3925.32
947.705	3811.89
945.949	3867.99
944.193	3814.43
942.438	4011.43
940.68	3987.75
938.924	3991.11
937.166	3890.63
935.408	3736.14
933.65	3873.22
931.891	3843.91
930.133	3794.71
928.373	3755.48
926.613	3925.1
924.854	3962.55
923.092	3862.26
921.33	3804.59
919.57	3944.24
917.809	3873.81
916.045	3899.88
914.283	3906.09
912.52	3856.99
910.756	3758.29
908.992	3821.22
907.229	3942.21
905.463	3861.98
903.699	3812.94
901.934	3728.53
900.168	3823.95
898.4	3915.08
896.635	3914.19
894.867	3812.85
893.1	3751.16
891.332	3733.33
889.564	3859.73
887.795	3875.81
886.025	3757.63
884.256	3751.13
882.486	3787
880.717	3872.28
878.945	3754.21
877.174	3679.96
875.402	3673.47
873.631	3741.77
871.859	3794.52
870.086	3885.32
868.312	3815.35
866.539	3782.06
864.766	3771.33
862.992	3815.56
861.217	3854.13
859.441	3650.45
857.666	3635.54
855.891	3679.76
854.113	3749.29
852.338	3818.79
850.561	3733.51
848.783	3662.34
847.004	3613.69
845.227	3742.2
843.447	3821.46
841.668	3716.61
839.889	3710.14
838.109	3709.29
836.328	3771.63
834.547	3758.14
832.766	3705.35
830.984	3616.1
829.203	3667.18
827.42	3730.86
825.637	3749.64
823.854	3612.8
822.07	3679.25
820.287	3618.16
818.502	3795.25
816.717	3790.18
814.932	3668.89
813.146	3724.05
811.359	3772.19
809.574	3841.3
807.787	3746.68
806	3825.55
804.211	3753.36
802.424	3737.12
800.635	3753.04
798.846	3861.19
797.057	3742.94
795.268	3628.94
793.477	3825.02
791.686	3893.95
789.895	3842.81
788.104	3694.01
786.312	3630.38
784.52	3702.08
782.727	3857.43
780.934	3763.13
779.141	3709.29
777.346	3686.15
775.553	3721.53
773.758	3737.39
771.963	3803.39
770.166	3744.03
768.371	3669.4
766.574	3685.26
764.777	3795.73
762.98	3785.12
761.184	3707.76
759.385	3655.46
757.586	3788.08
755.787	3827.51
753.988	3757.16
752.189	3770.19
750.389	3766.55
748.588	3771.24
746.787	3903.64
744.986	3754.24
743.184	3786.68
741.383	3680.38
739.58	3905.6
737.777	3828.44
735.973	3783.2
734.17	3725.51
732.365	3728.81
730.561	3957.92
728.756	3961.17
726.951	3875.79
725.145	3784.91
723.338	3868.47
721.531	3892.49
719.725	4003.65
717.916	3988.9
716.109	3925.76
714.301	3992.59
712.492	4139.57
710.684	4110.98
708.873	4065.82
707.062	3910.19
705.252	4052.9
703.441	4078.2
701.631	4088.3
699.818	4085.98
698.006	4096.08
696.193	4089.62
694.381	4178.31
692.568	4206.3
690.754	4159.84
688.939	4007.3
687.125	4157.92
685.311	4199.66
683.494	4204.2
681.68	4240.4
679.863	4112.79
678.047	4199.92
676.229	4263.61
674.412	4163.59
672.594	4232.76
670.775	4201.54
668.957	4233.56
667.137	4390.61
665.318	4358
663.498	4354.24
661.678	4303.8
659.855	4434.61
658.035	4539.27
656.213	4492.94
654.391	4457.6
652.568	4415.41
650.744	4547.41
648.922	4584.75
647.098	4553.53
645.273	4622.37
643.449	4610.34
641.623	4839.39
639.799	4898.52
637.973	4774.17
636.146	4789.48
634.318	4870.48
632.492	5049.95
630.664	5080.24
628.836	5125.56
627.008	5047.81
625.178	5322.75
623.35	5291.45
621.52	5338.04
619.689	5394.17
617.859	5513.09
616.027	5614.21
614.195	5700.26
612.363	5793.1
610.531	5765.83
608.699	5675.83
606.865	5990.89
605.031	6247.18
603.197	6208.92
601.363	6110.72
599.529	6353.18
597.693	6502.9
595.857	6618.5
594.021	6802.12
592.186	6840.01
590.348	6854.75
588.51	7125.26
586.672	7330.35
584.834	7461.91
582.996	7362.28
581.156	7590.28
579.316	7807.3
577.477	7998.41
575.637	7917.75
573.795	7964.79
571.953	8291.49
570.111	8539.31
568.27	8614.67
566.428	8687.27
564.584	8755.77
562.74	9203.95
560.896	9361.78
559.053	9396.18
557.207	9442.77
555.361	9550.3
553.516	9618.49
551.67	9918.22
549.824	9844.14
547.977	9698.35
546.129	9609.46
544.281	9976.56
542.434	9920.11
540.584	9762.26
538.736	9340.86
536.887	9475.18
535.035	9799.97
533.186	9673.37
531.334	9558.99
529.482	9246.15
527.631	9207.52
525.779	9483.4
523.926	9325.98
522.074	8959.52
520.221	8915.59
518.365	8986.3
516.512	8946.44
514.656	8608.71
512.803	8521.78
510.945	8416.03
509.09	8505.63
507.232	8364.93
505.377	8004.84
503.52	7893.93
501.66	7757.5
499.803	7969.57
497.943	7821.08
496.084	7480.37
494.225	7407.34
492.365	7324.95
490.504	7602.7
488.645	7357.75
486.781	7114.25
484.92	7209.24
483.059	7132.35
481.195	7193.73
479.332	6908.9
477.469	6720.8
475.604	6868.07
473.74	6922.75
471.875	6753.54
470.01	6674.2
468.145	6373.81
466.277	6546.44
464.41	6502.02
462.543	6454.95
460.676	6140.18
458.809	6065.1
456.939	6150.62
455.07	6253.49
453.201	6095.53
451.332	5904.22
449.461	5827.95
447.59	5888.03
445.719	5886.62
443.848	5746.3
441.975	5612.72
440.104	5663.44
438.23	5690.11
436.355	5662.06
434.482	5563.31
432.607	5577.98
430.732	5499.3
428.857	5663.29
426.982	5575.29
425.105	5411.39
423.23	5395.43
421.354	5491.36
419.475	5555.29
417.598	5447.45
415.719	5351.64
413.84	5368.98
411.961	5462.13
410.08	5641.69
408.201	5343.82
406.32	5386.4
404.439	5544.58
402.557	5690.72
400.676	5531.27
398.793	5458.22
396.91	5366.61
395.027	5504.69
393.143	5573.69
391.258	5364.04
389.373	5259.28
387.488	5132.02
385.604	5483.43
383.717	5433.06
381.83	5210.44
379.943	5025.03
378.055	5194.66
376.168	5313.9
374.279	5275.54
372.391	5084.99
370.5	5070.52
368.611	5120.88
366.721	5082.6
364.83	5046.98
362.939	4946.6
361.047	4899.14
359.154	5071.03
357.262	5032.8
355.369	4984.03
353.477	4790.04
351.582	4763.79
349.688	4923.62
347.793	4939.57
345.896	4876.36
344.002	4815.82
342.105	4863.42
340.209	4999.3
338.311	4946.68
336.414	4758.4
334.516	4902.1
332.617	4864.03
330.717	4965.51
328.818	4941.91
326.918	4864.38
325.018	4902.64
323.117	4922.47
321.215	4866.04
319.312	4739.96
317.41	4687.54
315.508	4753.38
313.604	4745.64
311.701	4719.51
309.797	4514.85
307.891	4688.3
305.986	4740.93
304.08	4696.47
302.174	4573.33
300.268	4602.35
298.361	4594.65
296.453	4698.35
294.545	4594.98
292.637	4582.05
290.727	4473.52
288.818	4622.97
286.908	4697.73
284.998	4646.83
283.086	4654.83
281.176	4530.72
279.264	4591.04
277.352	4579.44
275.438	4512.94
273.525	4524.88
271.611	4545.95
269.697	4632.31
267.781	4478.39
265.867	4494.23
263.951	4563.57
262.035	4595.04
260.119	4665.62
258.201	4582.29
256.283	4409.05
254.365	4582.59
252.447	4632.25
250.527	4530.77
248.607	4446.28
246.688	4525.88
244.768	4502.6
242.846	4501.46
240.926	4556.27
239.002	4473.17
237.08	4635.88
235.158	4537.2
233.234	4494.46
231.311	4411.45
229.385	4440.21
227.461	4600.12
225.535	4587.27
223.609	4490.04
221.684	4372.1
219.756	4374.87
217.828	4507.36
215.9	4512.69
213.973	4481.72
212.043	4418.36
210.113	4374.46
208.184	4537.86
206.254	4471.94
204.322	4310.25
202.391	4338.91
200.459	4509.91
198.527	4418.19
196.594	4371.78
194.66	4388.76
192.727	4357.89
190.793	4551.93
188.857	4482.27
186.922	4499.2
184.986	4336.61
183.051	4543.35
181.113	4509.9
179.176	4526.8
177.238	4564.33
175.301	4689.54
173.361	4755.37
171.422	4777.34
169.482	4633.05
167.541	4588.04
165.602	4912.73
163.66	4865.09
161.717	4961.66
159.775	4982.25
157.832	5025.98
155.889	5141.73
153.945	5083.8
152	4892.18
150.055	4993.73
148.109	5158.19
146.164	5260.9
144.217	5093.83
142.27	5027.01
140.322	5033.39
138.375	5075.7
136.426	5033.3
134.477	4943.47
132.527	5138.37
130.578	5174.19
128.627	5166.41
126.676	5195.8
124.725	5193.14
122.771	5391.55
120.82	5493.82
118.867	5488.52
116.912	5313.04
114.959	5508.64
113.004	5394.62
111.049	5641.24
109.094	5618
107.137	5583.28
105.18	5712.1
103.223	5870.23
101.266	5887.82
99.3066	5872.2
97.3477	6009.74
95.3887	6244.16
93.4277	6308.82
91.4668	6261.21
89.5059	6193.24
87.5449	6285.89
85.582	6545.4
83.6211	6523.26
81.6562	6349.58
79.6934	6374.6
77.7285	6491.25
75.7637	6582.38
73.7988	6499.19
71.834	6318.11
69.8672	6663.49
67.9004	6720.15
65.9336	6832.7
63.9648	6285.85
61.9961	5903.12
60.0273	5269.21
58.0586	3975.58
56.0879	2722
54.1172	1783.72
52.1465	1131.33
50.1738	685.965
48.2031	387.889
46.2305	214.168
44.2559	152.03
42.2832	112.725
40.3086	62.0448