File: PeakFitting/xrdData/jacobson_raman/C3_02125_532nm_5sec_5per_50x.txt
#Wave		#Intensity
1818.91	1709.97
1817.34	1714.76
1815.78	1712.83
1814.21	1720.49
1812.64	1745.69
1811.07	1748.54
1809.51	1668.45
1807.94	1792.53
1806.37	1774.64
1804.8	1704.16
1803.23	1673.55
1801.67	1721.03
1800.1	1762.12
1798.53	1744.26
1796.96	1731.18
1795.39	1769.07
1793.82	1719.37
1792.25	1682.43
1790.68	1725.07
1789.1	1783.6
1787.53	1748.26
1785.96	1784.5
1784.39	1698.29
1782.82	1705.9
1781.24	1727.82
1779.67	1765.63
1778.1	1709.67
1776.52	1677.57
1774.95	1721.71
1773.38	1719.78
1771.8	1724.21
1770.22	1792.13
1768.65	1836.21
1767.07	1748.58
1765.5	1789.48
1763.92	1760.58
1762.35	1839.52
1760.77	1820.14
1759.19	1784.9
1757.62	1735.42
1756.04	1755.67
1754.46	1701.46
1752.88	1705.88
1751.3	1735.63
1749.72	1755.86
1748.14	1831.5
1746.56	1870.7
1744.98	1784.88
1743.4	1877.87
1741.82	1784.17
1740.24	1775.91
1738.66	1837.21
1737.08	1753.07
1735.5	1828.58
1733.92	1821.89
1732.33	1845.22
1730.75	1740.61
1729.17	1825.53
1727.58	1774.64
1726	1883.21
1724.42	1848.11
1722.83	1759.37
1721.25	1684.87
1719.66	1809.13
1718.08	1840.31
1716.49	1802.1
1714.9	1803.31
1713.32	1779.3
1711.73	1789.97
1710.14	1772.28
1708.56	1842.8
1706.97	1866.05
1705.38	1812.14
1703.79	1731.49
1702.21	1718.55
1700.62	1746.52
1699.03	1845.27
1697.44	1766.26
1695.85	1794.2
1694.26	1771.83
1692.67	1813.9
1691.08	1893.68
1689.49	1876.01
1687.89	1889.76
1686.3	1796.71
1684.71	1790.07
1683.12	1863.48
1681.53	1866.24
1679.93	1908.23
1678.34	1815.27
1676.74	1861.95
1675.15	1797.27
1673.56	1906.66
1671.96	1904.7
1670.37	1874.53
1668.77	1817.73
1667.18	1836.15
1665.58	1931.32
1663.98	1995.13
1662.39	1921.13
1660.79	1914.47
1659.19	1892.16
1657.59	1896.46
1656	1963.34
1654.4	1931.65
1652.8	1975.04
1651.2	1863.62
1649.6	1846.04
1648	1923.8
1646.4	1884.33
1644.8	1963.61
1643.2	1838.26
1641.6	1942.49
1640	1885.89
1638.4	1927.63
1636.79	1964.68
1635.19	1939.31
1633.59	1835.95
1631.98	1860.52
1630.38	1881.96
1628.78	1897.16
1627.17	1923.25
1625.57	1936.88
1623.96	1952.05
1622.36	1903.35
1620.75	1901.4
1619.15	1994.41
1617.54	1969.09
1615.94	1855.07
1614.33	1960.48
1612.72	1885.4
1611.12	1945.66
1609.51	1977.9
1607.9	1951.05
1606.29	1872.93
1604.68	1926.92
1603.07	1851.94
1601.46	1964.94
1599.85	2008.01
1598.24	1856.97
1596.63	1918.67
1595.02	1882.57
1593.41	1958.2
1591.8	2002.78
1590.19	1909.29
1588.58	1860.82
1586.96	1948.79
1585.35	1928.23
1583.74	1938.66
1582.12	1921.21
1580.51	2032.33
1578.89	1841.41
1577.28	1896.76
1575.67	1931.96
1574.05	1965.59
1572.44	1894
1570.82	1915.25
1569.2	1880.81
1567.59	1877.32
1565.97	1961.95
1564.35	1981.63
1562.73	1891.57
1561.12	1874.17
1559.5	1852.14
1557.88	1922.79
1556.26	1959.43
1554.64	1966.73
1553.02	1872.16
1551.4	1913.42
1549.78	1988.61
1548.16	1954.25
1546.54	2040.18
1544.92	1936.45
1543.29	1868.21
1541.67	1877.05
1540.05	1870.49
1538.43	1976.37
1536.8	1946.69
1535.18	1863.12
1533.55	1919.68
1531.93	1988.52
1530.31	1981.94
1528.68	1981.51
1527.06	1991.85
1525.43	1991.42
1523.8	1889.52
1522.18	1976.72
1520.55	1985.52
1518.92	1926.7
1517.3	1914
1515.67	1858.29
1514.04	1867.1
1512.41	1946.53
1510.78	1943.03
1509.15	1865.89
1507.52	1914.58
1505.89	1857.41
1504.26	1916.81
1502.63	1921
1501	1888.39
1499.37	1872.66
1497.74	1872.25
1496.11	1882.56
1494.47	1937.29
1492.84	1921.55
1491.21	1867.56
1489.57	1900.82
1487.94	1790.24
1486.31	1901.52
1484.67	1991.35
1483.04	1908.34
1481.4	1839.13
1479.77	1866.24
1478.13	1904.03
1476.49	1918.9
1474.86	1953.61
1473.22	1849.34
1471.58	1801.6
1469.95	1857.69
1468.31	1869.49
1466.67	1930.11
1465.03	1931.22
1463.39	1923.17
1461.75	1826.69
1460.11	1974.16
1458.47	1883.8
1456.83	1874.25
1455.19	1764.15
1453.55	1852.1
1451.91	1889.76
1450.26	1866.51
1448.62	1933.08
1446.98	1867.21
1445.34	1850.07
1443.69	1898.34
1442.05	1872.07
1440.4	1917.27
1438.76	1884.92
1437.11	1864.75
1435.47	1824.84
1433.82	1939.89
1432.18	1878.71
1430.53	1914.74
1428.88	1940.12
1427.24	1838.01
1425.59	1834.57
1423.94	1961.6
1422.29	1894.43
1420.64	1936.47
1419	1911.79
1417.35	1893.18
1415.7	1886.7
1414.05	1919.61
1412.4	1941.91
1410.74	1886.96
1409.09	1900.17
1407.44	1887.64
1405.79	1959.87
1404.14	1889.83
1402.48	1907.57
1400.83	1892.02
1399.18	1891.6
1397.53	1851.88
1395.87	1987.49
1394.22	1916.03
1392.56	1921.65
1390.91	1824.56
1389.25	1955.53
1387.6	1926.42
1385.94	1842.97
1384.28	1930.09
1382.62	1870.82
1380.97	1814.59
1379.31	1904.68
1377.65	1966.07
1375.99	1854.09
1374.33	1871.76
1372.68	1890.93
1371.02	1902.56
1369.36	1894.61
1367.7	1874.61
1366.04	1886.24
1364.37	1860.23
1362.71	1891.42
1361.05	1903.03
1359.39	1928.18
1357.72	1882.64
1356.06	1886.73
1354.4	1914.87
1352.74	1941.49
1351.07	1855.42
1349.41	1946.64
1347.74	1823.06
1346.08	1827.16
1344.41	1847.77
1342.75	1886.37
1341.08	1911.46
1339.41	1879.53
1337.75	1814.63
1336.08	1875.7
1334.41	1843.8
1332.74	1970.78
1331.07	1857.96
1329.41	1889
1327.74	1845.15
1326.07	1876.18
1324.4	1919.18
1322.73	1911.26
1321.05	1894.38
1319.38	1864.03
1317.71	1898.02
1316.04	1876.66
1314.37	2012.28
1312.7	1929.63
1311.02	1911.26
1309.35	1966.12
1307.68	1977.62
1306	1942.84
1304.33	1909.55
1302.65	1912.11
1300.98	1916.16
1299.3	1923.19
1297.62	1974.97
1295.95	2011.81
1294.27	1948.74
1292.6	1908.06
1290.92	1891.23
1289.24	2004.05
1287.56	1996.15
1285.88	1968.9
1284.21	1941.66
1282.53	1938.24
1280.85	2019.67
1279.17	2022.19
1277.48	1966.69
1275.8	1936.5
1274.12	1936.07
1272.44	2027.81
1270.76	2067.49
1269.08	1982.32
1267.39	2007.13
1265.71	1993.31
1264.03	1978.02
1262.34	1980.54
1260.66	2024.63
1258.97	2003.4
1257.29	2022.23
1255.6	2030.68
1253.92	2104.37
1252.23	2114.28
1250.54	2054.51
1248.86	1981.43
1247.17	2035.81
1245.48	2064.98
1243.79	2091.17
1242.11	2043.32
1240.42	2149.44
1238.73	2077.92
1237.04	2123.32
1235.35	2186.46
1233.66	2148.99
1231.97	2095.27
1230.28	2227.85
1228.59	2147.54
1226.89	2271.18
1225.2	2184.98
1223.51	2228.8
1221.82	2285.89
1220.12	2248.47
1218.43	2348.33
1216.73	2349.28
1215.04	2307.44
1213.35	2371.82
1211.65	2296.08
1209.96	2422.35
1208.26	2492.56
1206.56	2425.68
1204.87	2386.83
1203.17	2392.18
1201.47	2382.81
1199.77	2533.92
1198.07	2548.07
1196.38	2460.67
1194.68	2429.22
1192.98	2503.69
1191.28	2548.72
1189.58	2586.37
1187.88	2588.73
1186.18	2558.75
1184.47	2647.81
1182.77	2703.03
1181.07	2724.45
1179.37	2616.65
1177.66	2752.58
1175.96	2768.11
1174.26	2807.1
1172.55	2815.27
1170.85	2751.57
1169.14	2808.14
1167.44	2861.75
1165.73	2872.83
1164.03	2788.65
1162.32	2862.74
1160.61	2850.37
1158.91	2864.38
1157.2	2821.27
1155.49	2971.4
1153.78	2969.26
1152.07	2959.82
1150.37	2905.02
1148.66	3034.52
1146.95	3118.64
1145.24	3097.47
1143.53	3044.16
1141.81	3081.46
1140.1	3105.6
1138.39	3185.22
1136.68	3196.18
1134.96	3145.83
1133.25	3104.25
1131.54	3275.72
1129.83	3291.03
1128.11	3335.5
1126.4	3295.38
1124.68	3230.49
1122.97	3257.45
1121.25	3419.91
1119.54	3366.69
1117.82	3408.17
1116.1	3296.73
1114.38	3351.31
1112.67	3382.57
1110.95	3377.44
1109.23	3413.05
1107.51	3354.09
1105.79	3348.97
1104.07	3452.89
1102.35	3398.33
1100.63	3420.81
1098.91	3437.47
1097.19	3327.75
1095.47	3337.17
1093.75	3480.15
1092.03	3427.1
1090.3	3384.24
1088.58	3326.89
1086.86	3360.95
1085.13	3519.72
1083.41	3408.73
1081.68	3329.68
1079.96	3362.26
1078.23	3310.78
1076.51	3383.91
1074.78	3436.73
1073.05	3289.71
1071.33	3189.08
1069.6	3276.64
1067.87	3333.78
1066.14	3227.42
1064.41	3252.72
1062.69	3172.46
1060.96	3100.9
1059.23	3208.6
1057.5	3257
1055.77	3211.48
1054.04	3030.21
1052.3	3080.06
1050.57	3173.2
1048.84	3142.17
1047.11	3160.22
1045.38	3101.8
1043.64	2990.03
1041.91	2986.47
1040.17	2985.79
1038.44	3055.74
1036.71	3026.23
1034.97	2874.27
1033.23	2942.75
1031.5	2908.97
1029.76	2973.1
1028.03	2900.45
1026.29	2859.5
1024.55	2830.07
1022.81	2918.62
1021.07	2928.02
1019.33	2884.22
1017.6	2824.63
1015.86	2780.88
1014.12	2850.65
1012.38	2839.95
1010.63	2763.19
1008.89	2692.2
1007.15	2721.74
1005.41	2790.01
1003.67	2783.64
1001.93	2758.62
1000.18	2714.97
998.439	2711.48
996.695	2732.37
994.951	2751.82
993.205	2656.62
991.461	2613.04
989.715	2631.06
987.969	2631.9
986.223	2559.72
984.477	2665.05
982.729	2588.61
980.982	2520.78
979.234	2710.44
977.486	2594
975.736	2586.26
973.988	2529.93
972.238	2473.62
970.488	2615.93
968.738	2611.05
966.988	2526.2
965.236	2497.07
963.484	2472.24
961.734	2491.66
959.98	2503.93
958.229	2471.98
956.475	2385.86
954.723	2392.44
952.969	2363.39
951.215	2428.41
949.459	2376.56
947.705	2423.03
945.949	2423.9
944.193	2325.11
942.438	2297.53
940.68	2413.71
938.924	2376.17
937.166	2297.39
935.408	2328.16
933.65	2407.25
931.891	2440.82
930.133	2272.56
928.373	2237.94
926.613	2359.6
924.854	2373.27
923.092	2362.79
921.33	2363.67
919.57	2327.65
917.809	2300.16
916.045	2312.41
914.283	2331.74
912.52	2273.07
910.756	2275.39
908.992	2266.37
907.229	2322.53
905.463	2336.17
903.699	2337.06
901.934	2214.74
900.168	2337.41
898.4	2345.37
896.635	2366.06
894.867	2303.27
893.1	2240.51
891.332	2282.42
889.564	2351.18
887.795	2344.99
886.025	2249.78
884.256	2204.05
882.486	2298.19
880.717	2289.19
878.945	2225.14
877.174	2244.39
875.402	2207.19
873.631	2229.26
871.859	2320.44
870.086	2287.48
868.312	2196.72
866.539	2156.75
864.766	2190.08
862.992	2247.35
861.217	2248.24
859.441	2173.09
857.666	2061.36
855.891	2132.68
854.113	2205.38
852.338	2140.15
850.561	2152.32
848.783	2046.35
847.004	2119
845.227	2223.95
843.447	2193.93
841.668	2141.44
839.889	2105.83
838.109	2139.06
836.328	2147
834.547	2188.62
832.766	2148.82
830.984	2023.44
829.203	2164.68
827.42	2176.8
825.637	2204.35
823.854	2130.95
822.07	2103.83
820.287	2124.37
818.502	2207.94
816.717	2145.81
814.932	2128.52
813.146	2079.03
811.359	2072.96
809.574	2170.44
807.787	2169.94
806	2161.05
804.211	2108.82
802.424	2098.55
800.635	2113.44
798.846	2079.42
797.057	2070.56
795.268	2134.34
793.477	2128.27
791.686	2219.93
789.895	2138.46
788.104	2131
786.312	2059.35
784.52	2138.39
782.727	2100.25
780.934	2130.44
779.141	2102.07
777.346	2115.53
775.553	2064.88
773.758	2072.77
771.963	2107.11
770.166	2128.91
768.371	2054.64
766.574	1960.93
764.777	2124.66
762.98	2082.44
761.184	2037.46
759.385	2052.29
757.586	2138
755.787	2068.02
753.988	2048.1
752.189	2000.4
750.389	2061.05
748.588	2070.29
746.787	2110.08
744.986	2070.73
743.184	1999.49
741.383	2089.2
739.58	2165
737.777	2186.69
735.973	2028.15
734.17	2037.39
732.365	2059.09
730.561	2127.88
728.756	2198.03
726.951	2132.45
725.145	2089.04
723.338	2105.17
721.531	2194.63
719.725	2169.22
717.916	2160.42
716.109	2076.96
714.301	2275.56
712.492	2268.12
710.684	2188.84
708.873	2211.82
707.062	2117.39
705.252	2227.37
703.441	2248.95
701.631	2264.99
699.818	2191.33
698.006	2149.44
696.193	2187.57
694.381	2182.92
692.568	2265.14
690.754	2223.27
688.939	2159.37
687.125	2229.13
685.311	2344.32
683.494	2215.71
681.68	2286.79
679.863	2242.22
678.047	2218.3
676.229	2254.94
674.412	2342.45
672.594	2220.89
670.775	2247.88
668.957	2393.06
667.137	2289.44
665.318	2378.21
663.498	2341.95
661.678	2329.05
659.855	2377.94
658.035	2432.29
656.213	2479.76
654.391	2425.68
652.568	2418.26
650.744	2509.58
648.922	2485.69
647.098	2478.26
645.273	2553.06
643.449	2533.29
641.623	2598.45
639.799	2612.91
637.973	2634.21
636.146	2563.79
634.318	2628.88
632.492	2751.41
630.664	2801.38
628.836	2885.52
627.008	2913.56
625.178	2989.43
623.35	3057.07
621.52	3005.81
619.689	3088.43
617.859	3213.35
616.027	3279.51
614.195	3467.11
612.363	3444.47
610.531	3440.94
608.699	3512.44
606.865	3630.26
605.031	3813.48
603.197	3933.91
601.363	3875.76
599.529	3959.33
597.693	4149.1
595.857	4368.75
594.021	4316
592.186	4278.24
590.348	4499.06
588.51	4795.98
586.672	4743.17
584.834	4746.14
582.996	4804.86
581.156	5029.38
579.316	5180.41
577.477	5388.43
575.637	5384.45
573.795	5425.29
571.953	5633.11
570.111	5802.82
568.27	5967.03
566.428	5881.51
564.584	6022.56
562.74	6246.27
560.896	6364.11
559.053	6335.51
557.207	6176.83
555.361	6385.38
553.516	6332.41
551.67	6351.24
549.824	6299.65
547.977	6069.42
546.129	5925.9
544.281	6215.39
542.434	6085.44
540.584	5962.3
538.736	5717.54
536.887	5759.45
535.035	5924.31
533.186	5814.83
531.334	5546.02
529.482	5379.97
527.631	5323.35
525.779	5547.5
523.926	5435.54
522.074	5092.93
520.221	4952.81
518.365	5051.42
516.512	5043.49
514.656	4826.65
512.803	4679.97
510.945	4623.63
509.09	4582.13
507.232	4637.61
505.377	4373.99
503.52	4167.03
501.66	4157.97
499.803	4251.15
497.943	4060.5
496.084	3896.84
494.225	3860.96
492.365	3894.99
490.504	3930.35
488.645	3667.45
486.781	3646.44
484.92	3558.29
483.059	3611.15
481.195	3619.68
479.332	3563.81
477.469	3373.81
475.604	3368.99
473.74	3357.46
471.875	3400.9
470.01	3270.09
468.145	3227.77
466.277	3169.4
464.41	3188.74
462.543	3171.91
460.676	3108.24
458.809	2962.96
456.939	2979.65
455.07	3049.83
453.201	3021.02
451.332	2981.52
449.461	2896.6
447.59	2936
445.719	2956.67
443.848	2869.14
441.975	2778.98
440.104	2759.63
438.23	2848.39
436.355	2815.68
434.482	2746.97
432.607	2671.62
430.732	2706.98
428.857	2788.98
426.982	2743
425.105	2698.36
423.23	2645.76
421.354	2710.39
419.475	2845.55
417.598	2814.25
415.719	2724.4
413.84	2783.62
411.961	2830.84
410.08	2860.74
408.201	2821.49
406.32	2772.96
404.439	2786.91
402.557	2802.18
400.676	2838.69
398.793	2814.1
396.91	2794.83
395.027	2731.77
393.143	2758.98
391.258	2668.09
389.373	2610.41
387.488	2621.71
385.604	2690.01
383.717	2674.78
381.83	2582.69
379.943	2490.65
378.055	2545.68
376.168	2621.86
374.279	2552.38
372.391	2419.41
370.5	2483.65
368.611	2455.27
366.721	2540.64
364.83	2440.85
362.939	2442.9
361.047	2332.61
359.154	2514.37
357.262	2450.35
355.369	2439.19
353.477	2319.76
351.582	2422.15
349.688	2446.63
347.793	2393.26
345.896	2396.63
344.002	2418.46
342.105	2337.45
340.209	2410.68
338.311	2373.2
336.414	2326.5
334.516	2219.25
332.617	2320.09
330.717	2381.39
328.818	2342.64
326.918	2311.8
325.018	2336.22
323.117	2285.67
321.215	2394.23
319.312	2264.82
317.41	2260.32
315.508	2293.92
313.604	2301.23
311.701	2253.39
309.797	2212.13
307.891	2235.21
305.986	2237.28
304.08	2244.6
302.174	2202.07
300.268	2184.48
298.361	2187.87
296.453	2272.51
294.545	2173.67
292.637	2082.75
290.727	2188.31
288.818	2195.62
286.908	2158.42
284.998	2180.13
283.086	2101.08
281.176	2129.33
279.264	2182.41
277.352	2193.63
275.438	2092.45
273.525	2133.74
271.611	2191.98
269.697	2141.81
267.781	2038.12
265.867	2054.58
263.951	2102.35
262.035	2156.61
260.119	2141.72
258.201	2075.98
256.283	2072.85
254.365	2132.29
252.447	2152.6
250.527	2129.91
248.607	2066.85
246.688	2113.21
244.768	2106.16
242.846	2156.38
240.926	2097.29
239.002	2048.63
237.08	2111.83
235.158	2093.09
233.234	2023.68
231.311	1976.38
229.385	2008.36
227.461	2009.14
225.535	2017.72
223.609	2034.08
221.684	1973.87
219.756	1974.66
217.828	2031.23
215.9	2073.5
213.973	1986.11
212.043	1942.83
210.113	2009.71
208.184	2031.22
206.254	1998.32
204.322	1920.12
202.391	1922.22
200.459	1996.78
198.527	1985.92
196.594	1949.19
194.66	2008.17
192.727	1952.07
190.793	2047.2
188.857	1974.32
186.922	1918.26
184.986	1973.3
183.051	1980.53
181.113	2029.07
179.176	1953.7
177.238	2049.95
175.301	2084.24
173.361	2126.25
171.422	2071.56
169.482	2123.86
167.541	2111.71
165.602	2218.07
163.66	2259.99
161.717	2308.32
159.775	2265.24
157.832	2314.83
155.889	2348.96
153.945	2285.33
152	2295.02
150.055	2232.72
148.109	2274.54
146.164	2329.18
144.217	2251.51
142.27	2227.81
140.322	2260.6
138.375	2191.98
136.426	2217.07
134.477	2198.52
132.527	2165.88
130.578	2198.64
128.627	2349.3
126.676	2347.4
124.725	2363.43
122.771	2334.63
120.82	2378.82
118.867	2387.15
116.912	2307.18
114.959	2416.58
113.004	2387.8
111.049	2484.34
109.094	2486.24
107.137	2426.79
105.18	2491.3
103.223	2599.2
101.266	2622.77
99.3066	2544.19
97.3477	2641.78
95.3887	2840.11
93.4277	2890.37
91.4668	2802.88
89.5059	2855.67
87.5449	2871.47
85.582	2921.67
83.6211	2798.59
81.6562	2839.86
79.6934	2803.45
77.7285	2900.7
75.7637	2894.82
73.7988	2845.7
71.834	2797.87
69.8672	2884.84
67.9004	3004.81
65.9336	3009.08
63.9648	2848.19
61.9961	2645.48
60.0273	2341.31
58.0586	1843.09
56.0879	1219.51
54.1172	813.206
52.1465	523.81
50.1738	341.081
48.2031	229.438
46.2305	126.726
44.2559	119.09
42.2832	63.3284
40.3086	27.8569