File: PeakFitting/xrdData/jacobson_raman/C3_02159_532nm_5sec_5per_50x.txt
#Wave		#Intensity
1818.91	2316.68
1817.34	2391.72
1815.78	2413.61
1814.21	2370.06
1812.64	2396.73
1811.07	2319.69
1809.51	2338.39
1807.94	2355.48
1806.37	2370.98
1804.8	2354.58
1803.23	2374.84
1801.67	2360.05
1800.1	2322.95
1798.53	2445.15
1796.96	2457.42
1795.39	2493.57
1793.82	2375.28
1792.25	2354.13
1790.68	2385.5
1789.1	2402.54
1787.53	2476.84
1785.96	2353.89
1784.39	2396.36
1782.82	2422.92
1781.24	2397.02
1779.67	2431.51
1778.1	2451.69
1776.52	2401.97
1774.95	2376.09
1773.38	2345.45
1771.8	2440.25
1770.22	2404.85
1768.65	2451.99
1767.07	2334.09
1765.5	2466.89
1763.92	2423.57
1762.35	2408.82
1760.77	2444.82
1759.19	2301.67
1757.62	2340.83
1756.04	2335.62
1754.46	2422.29
1752.88	2458.24
1751.3	2408.66
1749.72	2359.1
1748.14	2410.87
1746.56	2326.51
1744.98	2430.48
1743.4	2577.12
1741.82	2352
1740.24	2427.44
1738.66	2403.24
1737.08	2445.44
1735.5	2484.46
1733.92	2446.04
1732.33	2459.77
1730.75	2310.81
1729.17	2435.1
1727.58	2442.5
1726	2397.81
1724.42	2373.66
1722.83	2388.96
1721.25	2363.23
1719.66	2365.91
1718.08	2502.63
1716.49	2464.29
1714.9	2394.43
1713.32	2346.67
1711.73	2384.01
1710.14	2438.66
1708.56	2452.34
1706.97	2377.83
1705.38	2430.88
1703.79	2335.94
1702.21	2423.6
1700.62	2408.94
1699.03	2443.06
1697.44	2348.2
1695.85	2391.75
1694.26	2364.53
1692.67	2409.63
1691.08	2410.71
1689.49	2444.78
1687.89	2394.02
1686.3	2347.98
1684.71	2380.47
1683.12	2314.05
1681.53	2443.85
1679.93	2448.06
1678.34	2413.04
1676.74	2395.29
1675.15	2322.65
1673.56	2417.82
1671.96	2494.14
1670.37	2369.8
1668.77	2344.24
1667.18	2393.89
1665.58	2454.49
1663.98	2460.24
1662.39	2426.85
1660.79	2431.05
1659.19	2391.42
1657.59	2342.42
1656	2429.54
1654.4	2485.34
1652.8	2455.11
1651.2	2470.24
1649.6	2393.13
1648	2456.71
1646.4	2499.95
1644.8	2447.87
1643.2	2469.23
1641.6	2378.15
1640	2393.26
1638.4	2414.62
1636.79	2473.41
1635.19	2368.36
1633.59	2397.5
1631.98	2354.9
1630.38	2496.29
1628.78	2573.71
1627.17	2515.51
1625.57	2438.62
1623.96	2441.23
1622.36	2460.96
1620.75	2449.55
1619.15	2458.37
1617.54	2450.07
1615.94	2416.88
1614.33	2403.92
1612.72	2482.75
1611.12	2449.57
1609.51	2467.71
1607.9	2420.55
1606.29	2370.3
1604.68	2327.84
1603.07	2439.21
1601.46	2449.57
1599.85	2532.91
1598.24	2367.8
1596.63	2472.85
1595.02	2374.55
1593.41	2408.19
1591.8	2488.35
1590.19	2455.25
1588.58	2352.38
1586.96	2454.2
1585.35	2418.03
1583.74	2460.91
1582.12	2466.58
1580.51	2514.08
1578.89	2392.74
1577.28	2429.4
1575.67	2531.05
1574.05	2510.39
1572.44	2451.05
1570.82	2401.02
1569.2	2355.66
1567.59	2427.83
1565.97	2478.34
1564.35	2479.35
1562.73	2452.55
1561.12	2422.67
1559.5	2392.8
1557.88	2472.6
1556.26	2467.43
1554.64	2479.25
1553.02	2416.99
1551.4	2348.57
1549.78	2422.12
1548.16	2531.11
1546.54	2487.39
1544.92	2465.27
1543.29	2449.33
1541.67	2459.59
1540.05	2494.49
1538.43	2480.09
1536.8	2484.18
1535.18	2459.01
1533.55	2463.1
1531.93	2414.85
1530.31	2514.35
1528.68	2433.81
1527.06	2476.35
1525.43	2425.07
1523.8	2361.51
1522.18	2499.34
1520.55	2494.19
1518.92	2419.9
1517.3	2410.16
1515.67	2431.14
1514.04	2445.97
1512.41	2373.29
1510.78	2441.84
1509.15	2421.36
1507.52	2396.29
1505.89	2401.91
1504.26	2476.52
1502.63	2454.52
1501	2391.14
1499.37	2369.17
1497.74	2411.55
1496.11	2421.75
1494.47	2465.64
1492.84	2465.1
1491.21	2371.19
1489.57	2375.26
1487.94	2281.41
1486.31	2389.52
1484.67	2424.18
1483.04	2385.42
1481.4	2323.75
1479.77	2346.17
1478.13	2412.9
1476.49	2426.12
1474.86	2433.23
1473.22	2362.45
1471.58	2314.6
1469.95	2346.15
1468.31	2319.69
1466.67	2383.27
1465.03	2361.39
1463.39	2333.42
1461.75	2395.43
1460.11	2407.1
1458.47	2400.48
1456.83	2331.38
1455.19	2289.73
1453.55	2362.34
1451.91	2372.48
1450.26	2435.91
1448.62	2436.89
1446.98	2361.79
1445.34	2311.06
1443.69	2304.47
1442.05	2419.54
1440.4	2435.74
1438.76	2357.68
1437.11	2307.01
1435.47	2286.75
1433.82	2375.87
1432.18	2420.91
1430.53	2423.41
1428.88	2397.07
1427.24	2399.58
1425.59	2333.8
1423.94	2345.42
1422.29	2437.43
1420.64	2414.14
1419	2377.23
1417.35	2363.06
1415.7	2424.67
1414.05	2436.25
1412.4	2529.63
1410.74	2427.61
1409.09	2330.17
1407.44	2331.17
1405.79	2324.6
1404.14	2367.96
1402.48	2397.7
1400.83	2309.45
1399.18	2414.78
1397.53	2347.73
1395.87	2407.66
1394.22	2352.73
1392.56	2388.47
1390.91	2371.33
1389.25	2390.43
1387.6	2392.92
1385.94	2384.84
1384.28	2379.79
1382.62	2324.95
1380.97	2386.27
1379.31	2302.8
1377.65	2416.88
1375.99	2316.85
1374.33	2396.21
1372.68	2410.75
1371.02	2303.26
1369.36	2388.59
1367.7	2369.99
1366.04	2398.07
1364.37	2289.17
1362.71	2309.73
1361.05	2342.31
1359.39	2379.39
1357.72	2306.69
1356.06	2271.59
1354.4	2283.11
1352.74	2276.59
1351.07	2354.21
1349.41	2376.22
1347.74	2303.61
1346.08	2366.15
1344.41	2347.61
1342.75	2374.1
1341.08	2399.08
1339.41	2331.04
1337.75	2327.52
1336.08	2261.03
1334.41	2381.95
1332.74	2363.43
1331.07	2388.38
1329.41	2332.42
1327.74	2280.97
1326.07	2391.27
1324.4	2345.82
1322.73	2357.27
1321.05	2295.4
1319.38	2311.34
1317.71	2451.42
1316.04	2346.2
1314.37	2448.83
1312.7	2363.08
1311.02	2349.11
1309.35	2402.37
1307.68	2376.44
1306	2408.76
1304.33	2409.71
1302.65	2337.52
1300.98	2345.96
1299.3	2375.27
1297.62	2450.81
1295.95	2369.73
1294.27	2357.27
1292.6	2323.95
1290.92	2368.14
1289.24	2407.84
1287.56	2371.55
1285.88	2332.3
1284.21	2264.77
1282.53	2356.56
1280.85	2339.66
1279.17	2385.26
1277.48	2356.46
1275.8	2382.7
1274.12	2353.92
1272.44	2347.44
1270.76	2406.37
1269.08	2359.76
1267.39	2328.03
1265.71	2320.09
1264.03	2414.6
1262.34	2439.3
1260.66	2394.22
1258.97	2340.26
1257.29	2305.61
1255.6	2394.09
1253.92	2366.86
1252.23	2431.57
1250.54	2428.06
1248.86	2308.95
1247.17	2462.53
1245.48	2488.64
1243.79	2443.65
1242.11	2324.65
1240.42	2461.79
1238.73	2356.16
1237.04	2400.02
1235.35	2451.26
1233.66	2444.79
1231.97	2408.75
1230.28	2369.77
1228.59	2384.02
1226.89	2467.71
1225.2	2521.82
1223.51	2506.48
1221.82	2479.33
1220.12	2484.68
1218.43	2521.02
1216.73	2458.48
1215.04	2540.54
1213.35	2433.77
1211.65	2505.48
1209.96	2496.07
1208.26	2482.24
1206.56	2584.84
1204.87	2541.53
1203.17	2465.83
1201.47	2644.95
1199.77	2553.06
1198.07	2574.57
1196.38	2528.37
1194.68	2526.33
1192.98	2574.3
1191.28	2616.37
1189.58	2645.19
1187.88	2563.74
1186.18	2573.45
1184.47	2638.99
1182.77	2689.81
1181.07	2652.49
1179.37	2585.81
1177.66	2645.42
1175.96	2558.23
1174.26	2736.67
1172.55	2624.56
1170.85	2719.3
1169.14	2580.85
1167.44	2589.06
1165.73	2664.69
1164.03	2798.91
1162.32	2767.51
1160.61	2749.31
1158.91	2684.25
1157.2	2633.87
1155.49	2811.85
1153.78	2764.39
1152.07	2697.92
1150.37	2714.87
1148.66	2695.24
1146.95	2827.68
1145.24	2894.29
1143.53	2830.79
1141.81	2722.03
1140.1	2753.55
1138.39	2935.48
1136.68	2879.34
1134.96	2846.57
1133.25	2800.68
1131.54	2833.61
1129.83	2888.4
1128.11	2965.05
1126.4	2913.34
1124.68	2864.58
1122.97	2901.83
1121.25	2927.4
1119.54	2954.42
1117.82	2972.68
1116.1	2827.85
1114.38	2873.8
1112.67	2967.75
1110.95	2952.53
1109.23	3056.61
1107.51	3009.38
1105.79	2872
1104.07	3031.28
1102.35	3088.73
1100.63	3058.97
1098.91	2955.12
1097.19	3075.01
1095.47	3116.43
1093.75	3072.17
1092.03	3109.21
1090.3	3107.06
1088.58	3017.85
1086.86	3053.43
1085.13	3138.31
1083.41	3057.85
1081.68	3083.25
1079.96	3056.47
1078.23	2971.74
1076.51	3044.94
1074.78	3077.56
1073.05	3121.75
1071.33	3035.64
1069.6	3029.16
1067.87	3040.05
1066.14	2985.83
1064.41	3082.06
1062.69	3014.85
1060.96	2953.45
1059.23	2988.91
1057.5	3037.36
1055.77	2993.33
1054.04	2878.55
1052.3	2862.02
1050.57	2969.65
1048.84	3044.03
1047.11	3053.44
1045.38	2924.35
1043.64	2903.49
1041.91	2907.16
1040.17	2943.98
1038.44	2950.52
1036.71	3053.61
1034.97	2880.03
1033.23	2895.22
1031.5	3015.53
1029.76	2961.58
1028.03	2877.42
1026.29	2909.87
1024.55	2805.61
1022.81	2897.04
1021.07	2905.01
1019.33	2900.04
1017.6	2866.32
1015.86	2756.44
1014.12	2905.25
1012.38	2946.25
1010.63	2804.84
1008.89	2844.4
1007.15	2876.77
1005.41	2955.06
1003.67	2862.55
1001.93	2893.47
1000.18	2842.61
998.439	2823.33
996.695	2808.35
994.951	2856.44
993.205	2772.68
991.461	2752
989.715	2782.88
987.969	2805.16
986.223	2787.35
984.477	2792.44
982.729	2824.72
980.982	2723.93
979.234	2824.87
977.486	2818.5
975.736	2773.54
973.988	2768.63
972.238	2685.11
970.488	2763.08
968.738	2746.74
966.988	2713.27
965.236	2684.1
963.484	2713.47
961.734	2732.83
959.98	2750.76
958.229	2674.53
956.475	2678.2
954.723	2667.62
952.969	2615.69
951.215	2706.31
949.459	2684.32
947.705	2619.61
945.949	2619.01
944.193	2565.74
942.438	2683.3
940.68	2675.58
938.924	2603.83
937.166	2621.73
935.408	2602.64
933.65	2657.5
931.891	2718.03
930.133	2575.29
928.373	2598.86
926.613	2673.56
924.854	2725.5
923.092	2729.14
921.33	2617.79
919.57	2676.8
917.809	2649.23
916.045	2685.51
914.283	2706.18
912.52	2657.35
910.756	2553.25
908.992	2605.12
907.229	2600.27
905.463	2694.6
903.699	2573.59
901.934	2606.99
900.168	2558.26
898.4	2639.78
896.635	2666.06
894.867	2608.87
893.1	2563.01
891.332	2535.56
889.564	2667.88
887.795	2671.51
886.025	2663.84
884.256	2499.34
882.486	2567.98
880.717	2619.65
878.945	2606.35
877.174	2526.71
875.402	2538.83
873.631	2514.27
871.859	2615.26
870.086	2590.69
868.312	2560.49
866.539	2544.4
864.766	2548.04
862.992	2506.6
861.217	2555.34
859.441	2527.99
857.666	2493.62
855.891	2504.32
854.113	2533.3
852.338	2674.84
850.561	2463.22
848.783	2514.69
847.004	2505.68
845.227	2554.31
843.447	2534.05
841.668	2562.98
839.889	2511.82
838.109	2471.93
836.328	2523.32
834.547	2567.66
832.766	2492.69
830.984	2511.77
829.203	2501.37
827.42	2576.54
825.637	2601.19
823.854	2453.4
822.07	2476.66
820.287	2508.33
818.502	2538.57
816.717	2501.58
814.932	2579.43
813.146	2504.64
811.359	2497.06
809.574	2570.66
807.787	2595.26
806	2583.47
804.211	2514.36
802.424	2491.42
800.635	2535.57
798.846	2576.92
797.057	2559.56
795.268	2472.38
793.477	2494.15
791.686	2634.6
789.895	2523.72
788.104	2439.41
786.312	2465.36
784.52	2467.59
782.727	2554.88
780.934	2566.85
779.141	2475.65
777.346	2445.82
775.553	2485.66
773.758	2526.88
771.963	2524.91
770.166	2485.35
768.371	2419.35
766.574	2477.25
764.777	2554.6
762.98	2569.32
761.184	2504.75
759.385	2512.52
757.586	2459.12
755.787	2539.17
753.988	2510.79
752.189	2514.39
750.389	2499.92
748.588	2504.9
746.787	2547.36
744.986	2498.2
743.184	2443.51
741.383	2509.54
739.58	2511.74
737.777	2640.11
735.973	2446.81
734.17	2478.13
732.365	2538.53
730.561	2637.69
728.756	2639.85
726.951	2607.4
725.145	2556.96
723.338	2574.37
721.531	2670.64
719.725	2661.72
717.916	2650.05
716.109	2569.23
714.301	2682.01
712.492	2746.35
710.684	2740.19
708.873	2769.95
707.062	2614.62
705.252	2667.87
703.441	2693.49
701.631	2862.64
699.818	2696.39
698.006	2675.07
696.193	2624.8
694.381	2727.62
692.568	2713.21
690.754	2719.47
688.939	2687.15
687.125	2744.39
685.311	2742.38
683.494	2679.78
681.68	2709.45
679.863	2783.16
678.047	2832.05
676.229	2783.25
674.412	2848.63
672.594	2783.34
670.775	2755.2
668.957	2775.18
667.137	2946.31
665.318	2940.14
663.498	2810.34
661.678	2804.2
659.855	2966.93
658.035	2905.85
656.213	2972.42
654.391	2916.85
652.568	2958.7
650.744	3055.38
648.922	3054.67
647.098	3026.55
645.273	2995.7
643.449	3001.86
641.623	3128.55
639.799	3208.62
637.973	3192.82
636.146	3197.55
634.318	3146.18
632.492	3311
630.664	3385.46
628.836	3340.91
627.008	3331.93
625.178	3361.23
623.35	3546.31
621.52	3564.61
619.689	3442.21
617.859	3455.07
616.027	3668.62
614.195	3811.1
612.363	3728.33
610.531	3764.3
608.699	3781.16
606.865	3890.74
605.031	4050.72
603.197	4115.2
601.363	4006.58
599.529	4114.65
597.693	4335.72
595.857	4481.79
594.021	4537.92
592.186	4470.17
590.348	4631.07
588.51	4846.32
586.672	4846.55
584.834	4946.05
582.996	4935.38
581.156	5071.51
579.316	5285.05
577.477	5503.91
575.637	5470.03
573.795	5380.48
571.953	5600.53
570.111	5781.1
568.27	5903.25
566.428	5942.57
564.584	5919.47
562.74	6168.97
560.896	6289.54
559.053	6464.28
557.207	6287.95
555.361	6504.61
553.516	6707.61
551.67	6590.93
549.824	6696.34
547.977	6585.13
546.129	6532.16
544.281	6818.8
542.434	6754.98
540.584	6572.19
538.736	6381.36
536.887	6513.68
535.035	6733.77
533.186	6575.46
531.334	6488.82
529.482	6414.37
527.631	6410.16
525.779	6427.55
523.926	6474.61
522.074	6224.85
520.221	6359.61
518.365	6281.24
516.512	6250.1
514.656	5869.88
512.803	5919.7
510.945	5809.18
509.09	5801.07
507.232	5778.15
505.377	5717.55
503.52	5364.91
501.66	5467.25
499.803	5430.98
497.943	5297.89
496.084	5162.17
494.225	4943.16
492.365	5034.73
490.504	5077.87
488.645	5043.08
486.781	4775.96
484.92	4811.08
483.059	4844.84
481.195	4712.16
479.332	4630.54
477.469	4562.36
475.604	4526.41
473.74	4588.35
471.875	4526.93
470.01	4446.78
468.145	4294.32
466.277	4267.84
464.41	4315.04
462.543	4338.11
460.676	4183.14
458.809	3961.32
456.939	4150.37
455.07	4174.79
453.201	4140.36
451.332	4029.74
449.461	3887.08
447.59	3950.3
445.719	3953.36
443.848	3826.86
441.975	3693.74
440.104	3802.33
438.23	3817.43
436.355	3851.21
434.482	3659.51
432.607	3654.63
430.732	3695.09
428.857	3676.87
426.982	3588.02
425.105	3585.83
423.23	3555.66
421.354	3609.41
419.475	3621.85
417.598	3570.39
415.719	3475.04
413.84	3468.88
411.961	3521.25
410.08	3670.69
408.201	3522.21
406.32	3401.72
404.439	3513.87
402.557	3625.96
400.676	3554.68
398.793	3355.94
396.91	3385.67
395.027	3504.31
393.143	3584.41
391.258	3469.44
389.373	3400.96
387.488	3414.72
385.604	3522.6
383.717	3436.92
381.83	3298.27
379.943	3249.77
378.055	3278.12
376.168	3339.56
374.279	3371.84
372.391	3292.94
370.5	3229.94
368.611	3270.16
366.721	3224.4
364.83	3220.97
362.939	3177.88
361.047	3109.7
359.154	3132.73
357.262	3265.38
355.369	3185.34
353.477	3067.05
351.582	3094.02
349.688	3122.3
347.793	3194.09
345.896	3061.41
344.002	3137.14
342.105	3166.69
340.209	3148.78
338.311	3071.58
336.414	2940.4
334.516	3068.75
332.617	3070.63
330.717	3121.22
328.818	3145.45
326.918	3049.94
325.018	3138.64
323.117	3108.93
321.215	3110.79
319.312	2972.01
317.41	2908.19
315.508	2992.87
313.604	3101.15
311.701	2976.94
309.797	2865.93
307.891	2912.47
305.986	2991.79
304.08	2924.14
302.174	2870.95
300.268	2808.61
298.361	2910.16
296.453	2951.38
294.545	2856.31
292.637	2839.87
290.727	2807.74
288.818	2930.11
286.908	2939.85
284.998	2882.84
283.086	2833.72
281.176	2876.17
279.264	2897.68
277.352	2921.79
275.438	2911.91
273.525	2823.64
271.611	2856.89
269.697	2870.54
267.781	2796.71
265.867	2805.14
263.951	2821.4
262.035	2904.19
260.119	2818.68
258.201	2772.33
256.283	2705.14
254.365	2842.61
252.447	2899.23
250.527	2800.79
248.607	2736.27
246.688	2782.45
244.768	2786.95
242.846	2782.34
240.926	2753.02
239.002	2753.62
237.08	2751.62
235.158	2858.83
233.234	2791.81
231.311	2736.53
229.385	2689.07
227.461	2749.42
225.535	2835.72
223.609	2788.26
221.684	2678.54
219.756	2712.89
217.828	2745.92
215.9	2835.99
213.973	2717.29
212.043	2723.08
210.113	2748.29
208.184	2782.57
206.254	2758.54
204.322	2616.7
202.391	2696.29
200.459	2749.95
198.527	2773.82
196.594	2655.4
194.66	2668.94
192.727	2704.45
190.793	2764.5
188.857	2788.34
186.922	2706.24
184.986	2704.24
183.051	2750.02
181.113	2809.98
179.176	2792.47
177.238	2733.7
175.301	2807.79
173.361	2876.69
171.422	2830.83
169.482	2808.18
167.541	2913.1
165.602	2981.9
163.66	2923.17
161.717	2945.58
159.775	2939.67
157.832	2899.01
155.889	3097.64
153.945	3055.68
152	2959.74
150.055	2915.26
148.109	3049.42
146.164	3039.63
144.217	3083.79
142.27	3038.03
140.322	2988.45
138.375	3049.27
136.426	3072.84
134.477	2937.35
132.527	3014.8
130.578	3065.28
128.627	3082.42
126.676	3089.29
124.725	3143.55
122.771	3167.05
120.82	3182.86
118.867	3308.73
116.912	3141.5
114.959	3180.32
113.004	3324
111.049	3312.88
109.094	3283.88
107.137	3360.96
105.18	3367.73
103.223	3431.97
101.266	3456.59
99.3066	3404.6
97.3477	3486.64
95.3887	3606.92
93.4277	3619.98
91.4668	3541.22
89.5059	3486.73
87.5449	3678.24
85.582	3655.59
83.6211	3750.14
81.6562	3712.2
79.6934	3638.63
77.7285	3832.38
75.7637	3869.52
73.7988	3692.92
71.834	3760.6
69.8672	3844.76
67.9004	3916.17
65.9336	3963.4
63.9648	3845.44
61.9961	3482.44
60.0273	3081.54
58.0586	2376.21
56.0879	1645.89
54.1172	1073.28
52.1465	672.201
50.1738	395.603
48.2031	253.522
46.2305	147.003
44.2559	84.8834
42.2832	73.461
40.3086	59.5124