File: PeakFitting/xrdData/jacobson_raman/C3_02125_532nm_5sec_5per_50x_2.txt
#Wave		#Intensity
1818.91	2029.29
1817.34	2050.04
1815.78	2123.08
1814.21	2151.41
1812.64	2032.91
1811.07	2024.55
1809.51	1981.09
1807.94	2122.65
1806.37	2066.43
1804.8	2123.42
1803.23	2046.51
1801.67	2066.83
1800.1	2064.84
1798.53	2089.93
1796.96	2111.82
1795.39	2095.49
1793.82	2004.34
1792.25	2066.03
1790.68	2081.54
1789.1	2117.73
1787.53	2110.96
1785.96	2078.74
1784.39	2059.25
1782.82	2007.97
1781.24	2145.87
1779.67	2156.58
1778.1	2151.39
1776.52	2122.37
1774.95	2118.78
1773.38	2121.54
1771.8	2116.36
1770.22	2139.76
1768.65	2182.19
1767.07	2094.49
1765.5	2067.11
1763.92	2139.66
1762.35	2155.1
1760.77	2208.58
1759.19	2116.2
1757.62	2101.52
1756.04	2159.73
1754.46	2143.46
1752.88	2201.64
1751.3	2134.69
1749.72	2112.1
1748.14	2075.28
1746.56	2130.26
1744.98	2170.97
1743.4	2218
1741.82	2171.69
1740.24	2161.77
1738.66	2060.15
1737.08	2175.13
1735.5	2144.67
1733.92	2136.34
1732.33	2150.13
1730.75	2053.35
1729.17	2172.95
1727.58	2091.99
1726	2203.65
1724.42	2102.2
1722.83	2122.29
1721.25	2128.17
1719.66	2156.13
1718.08	2203.01
1716.49	2215.18
1714.9	2164.29
1713.32	2146.51
1711.73	2149.23
1710.14	2139.34
1708.56	2241.29
1706.97	2144.77
1705.38	2180.55
1703.79	2143.9
1702.21	2193.83
1700.62	2163.49
1699.03	2227.54
1697.44	2205.07
1695.85	2261.23
1694.26	2202.6
1692.67	2224.15
1691.08	2244.13
1689.49	2213.82
1687.89	2125.4
1686.3	2211.34
1684.71	2247
1683.12	2233.98
1681.53	2250.79
1679.93	2209.53
1678.34	2201.23
1676.74	2214.89
1675.15	2214.44
1673.56	2254.75
1671.96	2254.29
1670.37	2183.29
1668.77	2171.87
1667.18	2185.52
1665.58	2277.49
1663.98	2313.04
1662.39	2373.62
1660.79	2219.72
1659.19	2195.78
1657.59	2228.19
1656	2213.65
1654.4	2319.55
1652.8	2279.97
1651.2	2279.5
1649.6	2200.87
1648	2264.48
1646.4	2371.82
1644.8	2376.02
1643.2	2272.44
1641.6	2226.68
1640	2273.05
1638.4	2372.47
1636.79	2357.93
1635.19	2307.51
1633.59	2347.59
1631.98	2340.86
1630.38	2371.55
1628.78	2402.23
1627.17	2328.48
1625.57	2440.18
1623.96	2366.45
1622.36	2439.16
1620.75	2396.6
1619.15	2458.37
1617.54	2414.27
1615.94	2329.73
1614.33	2318.34
1612.72	2366.08
1611.12	2410.68
1609.51	2430.39
1607.9	2446.98
1606.29	2294.14
1604.68	2435.07
1603.07	2355.32
1601.46	2472.87
1599.85	2481.67
1598.24	2411.27
1596.63	2357.98
1595.02	2388.52
1593.41	2450.08
1591.8	2488.35
1590.19	2497.12
1588.58	2380.29
1586.96	2342.58
1585.35	2383.93
1583.74	2459.36
1582.12	2489.82
1580.51	2472.25
1578.89	2414.43
1577.28	2375.2
1575.67	2489.25
1574.05	2459.31
1572.44	2413.92
1570.82	2444.34
1569.2	2453.1
1567.59	2400
1565.97	2492.25
1564.35	2502.54
1562.73	2423.19
1561.12	2418.03
1559.5	2420.6
1557.88	2432.44
1556.26	2523.02
1554.64	2544.09
1553.02	2517.31
1551.4	2467.39
1549.78	2494.63
1548.16	2554.25
1546.54	2502.81
1544.92	2553.15
1543.29	2498.65
1541.67	2539.72
1540.05	2566.91
1538.43	2532.47
1536.8	2507.28
1535.18	2479.03
1533.55	2486.19
1531.93	2565.69
1530.31	2598.98
1528.68	2632.27
1527.06	2497.89
1525.43	2480.43
1523.8	2473.75
1522.18	2719.15
1520.55	2609.45
1518.92	2572.01
1517.3	2513.08
1515.67	2478.75
1514.04	2449.04
1512.41	2546.76
1510.78	2558.48
1509.15	2513.43
1507.52	2482.2
1505.89	2510.8
1504.26	2501.06
1502.63	2503.58
1501	2498.44
1499.37	2496.36
1497.74	2486.63
1496.11	2461.58
1494.47	2531.49
1492.84	2455.91
1491.21	2479.87
1489.57	2366.08
1487.94	2338.02
1486.31	2421.65
1484.67	2419.59
1483.04	2397.66
1481.4	2299.29
1479.77	2398.14
1478.13	2391.5
1476.49	2397.09
1474.86	2405.73
1473.22	2290.67
1471.58	2323.76
1469.95	2338.52
1468.31	2376.16
1466.67	2375.64
1465.03	2333.93
1463.39	2330.37
1461.75	2358.83
1460.11	2352.22
1458.47	2365.42
1456.83	2307
1455.19	2324.77
1453.55	2263.34
1451.91	2264.37
1450.26	2343.04
1448.62	2351.65
1446.98	2322.22
1445.34	2274.55
1443.69	2275.57
1442.05	2258.34
1440.4	2405.33
1438.76	2372.88
1437.11	2285.73
1435.47	2309.54
1433.82	2324.22
1432.18	2399.65
1430.53	2350.53
1428.88	2413.77
1427.24	2273.6
1425.59	2262.48
1423.94	2333.29
1422.29	2355.52
1420.64	2344.39
1419	2286.26
1417.35	2232.7
1415.7	2323.14
1414.05	2421.1
1412.4	2335.74
1410.74	2314.03
1409.09	2262.04
1407.44	2341.76
1405.79	2314.01
1404.14	2260.54
1402.48	2384.08
1400.83	2232.31
1399.18	2249.96
1397.53	2279.7
1395.87	2298.84
1394.22	2339.13
1392.56	2257.04
1390.91	2245.96
1389.25	2299.83
1387.6	2347.63
1385.94	2301.83
1384.28	2292.26
1382.62	2243.48
1380.97	2199.23
1379.31	2239.46
1377.65	2320.38
1375.99	2307.81
1374.33	2277.16
1372.68	2231.45
1371.02	2300.25
1369.36	2313.29
1367.7	2258.57
1366.04	2277.64
1364.37	2189.84
1362.71	2229.98
1361.05	2229.48
1359.39	2310.21
1357.72	2220.97
1356.06	2176.88
1354.4	2219.99
1352.74	2287.11
1351.07	2375.24
1349.41	2298.11
1347.74	2293.09
1346.08	2202.5
1344.41	2274.06
1342.75	2255.54
1341.08	2301.55
1339.41	2250.04
1337.75	2204.55
1336.08	2238.54
1334.41	2333.98
1332.74	2355.94
1331.07	2314.96
1329.41	2208.08
1327.74	2240.54
1326.07	2252.02
1324.4	2321.87
1322.73	2310.88
1321.05	2257.99
1319.38	2196.15
1317.71	2316.81
1316.04	2266.94
1314.37	2348.66
1312.7	2291.34
1311.02	2280.37
1309.35	2293.3
1307.68	2301.75
1306	2343.05
1304.33	2344.02
1302.65	2256.92
1300.98	2328.05
1299.3	2358.86
1297.62	2356.84
1295.95	2357.8
1294.27	2312.54
1292.6	2236
1290.92	2342.81
1289.24	2395.92
1287.56	2401.34
1285.88	2347.19
1284.21	2269.23
1282.53	2350.6
1280.85	2427.47
1279.17	2461.15
1277.48	2359.44
1275.8	2290.49
1274.12	2339.05
1272.44	2378.66
1270.76	2446.5
1269.08	2310.72
1267.39	2380.03
1265.71	2299.29
1264.03	2316.59
1262.34	2348.74
1260.66	2383.83
1258.97	2421.88
1257.29	2363.48
1255.6	2355.53
1253.92	2392.07
1252.23	2492.36
1250.54	2345.05
1248.86	2288.2
1247.17	2421.04
1245.48	2417.53
1243.79	2498.44
1242.11	2428.29
1240.42	2485.48
1238.73	2415.36
1237.04	2496.2
1235.35	2505.99
1233.66	2469.93
1231.97	2450.15
1230.28	2427.43
1228.59	2478.61
1226.89	2571.15
1225.2	2512.95
1223.51	2558.17
1221.82	2488.19
1220.12	2567.36
1218.43	2596.3
1216.73	2651.79
1215.04	2689.55
1213.35	2652.07
1211.65	2638.2
1209.96	2761.45
1208.26	2756.41
1206.56	2835.37
1204.87	2700.65
1203.17	2666.17
1201.47	2759.82
1199.77	2822.51
1198.07	2841.01
1196.38	2849.2
1194.68	2867.68
1192.98	2880.27
1191.28	2826.68
1189.58	2915.73
1187.88	2885.68
1186.18	2898.25
1184.47	2968.13
1182.77	2980.68
1181.07	2975.6
1179.37	2982.27
1177.66	2958.11
1175.96	3066.05
1174.26	3113.79
1172.55	3140.96
1170.85	3107.98
1169.14	3044.22
1167.44	3068.46
1165.73	3142.52
1164.03	3179.91
1162.32	3146.96
1160.61	3163.83
1158.91	3171.9
1157.2	3280.99
1155.49	3356.36
1153.78	3223.9
1152.07	3240.73
1150.37	3155.16
1148.66	3329.93
1146.95	3412.52
1145.24	3404.44
1143.53	3454.82
1141.81	3413.13
1140.1	3374.38
1138.39	3451.02
1136.68	3492.58
1134.96	3520.99
1133.25	3372.79
1131.54	3503.35
1129.83	3559.45
1128.11	3650.53
1126.4	3620.54
1124.68	3501.64
1122.97	3640.76
1121.25	3639.94
1119.54	3710.5
1117.82	3696.55
1116.1	3679.7
1114.38	3480.88
1112.67	3670.76
1110.95	3653.92
1109.23	3637.09
1107.51	3608.63
1105.79	3526.38
1104.07	3618.63
1102.35	3651.24
1100.63	3756.5
1098.91	3646.68
1097.19	3667.65
1095.47	3585.49
1093.75	3679.05
1092.03	3692.74
1090.3	3713.67
1088.58	3553.23
1086.86	3655.42
1085.13	3682.14
1083.41	3627.66
1081.68	3570.31
1079.96	3553.56
1078.23	3480.31
1076.51	3688.12
1074.78	3640.94
1073.05	3616.95
1071.33	3553.88
1069.6	3512.55
1067.87	3594.23
1066.14	3496.49
1064.41	3485.58
1062.69	3431.29
1060.96	3427.62
1059.23	3392.15
1057.5	3450.63
1055.77	3445.51
1054.04	3254.08
1052.3	3208.58
1050.57	3291.59
1048.84	3426.51
1047.11	3363.69
1045.38	3388.89
1043.64	3215.04
1041.91	3224.41
1040.17	3304.41
1038.44	3215.74
1036.71	3193.39
1034.97	3103.34
1033.23	3203.47
1031.5	3139.38
1029.76	3191.94
1028.03	3103.41
1026.29	3078.24
1024.55	3137.97
1022.81	3040.88
1021.07	3205.58
1019.33	3091.26
1017.6	3043.13
1015.86	3069.74
1014.12	3023.07
1012.38	3108.57
1010.63	3056.16
1008.89	2949.22
1007.15	2934.19
1005.41	3005.29
1003.67	2985.95
1001.93	2899.2
1000.18	2971.69
998.439	3041.28
996.695	2993.28
994.951	2998.33
993.205	2850.06
991.461	2797.84
989.715	2825.85
987.969	2803.73
986.223	2854.63
984.477	2835.38
982.729	2829.01
980.982	2755.41
979.234	2834.88
977.486	2874.27
975.736	2829.3
973.988	2752.9
972.238	2730.84
970.488	2800.23
968.738	2738.17
966.988	2821.81
965.236	2622.71
963.484	2686.35
961.734	2680.03
959.98	2776.44
958.229	2737.3
956.475	2649.68
954.723	2666.19
952.969	2597.16
951.215	2689.21
949.459	2755.56
947.705	2679.44
945.949	2609.04
944.193	2524.45
942.438	2741.67
940.68	2701.2
938.924	2629.44
937.166	2554.87
935.408	2616.86
933.65	2690.21
931.891	2642.68
930.133	2615.08
928.373	2479.5
926.613	2616.73
924.854	2680.05
923.092	2605.6
921.33	2593.65
919.57	2551.9
917.809	2574.03
916.045	2537.97
914.283	2572.86
912.52	2562.34
910.756	2584.44
908.992	2598.03
907.229	2581.85
905.463	2609.6
903.699	2586.34
901.934	2527.69
900.168	2549.77
898.4	2501.07
896.635	2622.2
894.867	2501.34
893.1	2478.14
891.332	2493.13
889.564	2611.32
887.795	2566.91
886.025	2631.33
884.256	2452.71
882.486	2490.29
880.717	2527.86
878.945	2486.34
877.174	2525.29
875.402	2455.57
873.631	2466.29
871.859	2541.91
870.086	2494.79
868.312	2458.97
866.539	2461.23
864.766	2367.65
862.992	2503.79
861.217	2466.59
859.441	2408.28
857.666	2428.86
855.891	2314.28
854.113	2498.12
852.338	2460.96
850.561	2467.44
848.783	2333.26
847.004	2282.11
845.227	2402.49
843.447	2358.37
841.668	2369.07
839.889	2308.13
838.109	2391.87
836.328	2453.11
834.547	2386.57
832.766	2338.3
830.984	2370.04
829.203	2299.35
827.42	2461.53
825.637	2456.76
823.854	2395.92
822.07	2316.88
820.287	2335.97
818.502	2385.87
816.717	2465.16
814.932	2397.38
813.146	2350.63
811.359	2400.48
809.574	2399.94
807.787	2448.35
806	2292.53
804.211	2392.7
802.424	2330.63
800.635	2437.73
798.846	2340.75
797.057	2343.01
795.268	2331.3
793.477	2364.28
791.686	2422.38
789.895	2403.68
788.104	2302.65
786.312	2281.19
784.52	2378.31
782.727	2408.45
780.934	2403.72
779.141	2320.92
777.346	2335.72
775.553	2293.39
773.758	2440.52
771.963	2384.25
770.166	2321.05
768.371	2292.68
766.574	2329.73
764.777	2383.46
762.98	2353.7
761.184	2294.75
759.385	2271.98
757.586	2304.82
755.787	2280.66
753.988	2332.94
752.189	2326.85
750.389	2265.21
748.588	2268.85
746.787	2418.26
744.986	2362.19
743.184	2317.24
741.383	2361.1
739.58	2404.94
737.777	2369.73
735.973	2341.45
734.17	2367.25
732.365	2404.12
730.561	2360.62
728.756	2458.42
726.951	2402.46
725.145	2347.92
723.338	2370.91
721.531	2366.21
719.725	2456.98
717.916	2449.49
716.109	2428.19
714.301	2435.93
712.492	2539.03
710.684	2499.75
708.873	2431.48
707.062	2397.77
705.252	2401.36
703.441	2482.26
701.631	2506.54
699.818	2391.42
698.006	2502.62
696.193	2470.32
694.381	2524.91
692.568	2509.16
690.754	2492.05
688.939	2483.2
687.125	2468.85
685.311	2550.93
683.494	2638.47
681.68	2547
679.863	2469.33
678.047	2596.74
676.229	2618.15
674.412	2599.66
672.594	2508.3
670.775	2562.72
668.957	2617.11
667.137	2661.85
665.318	2702.45
663.498	2689.47
661.678	2577.61
659.855	2659.39
658.035	2730.15
656.213	2703.45
654.391	2676.75
652.568	2692.59
650.744	2814.02
648.922	2879.18
647.098	2726.36
645.273	2754.51
643.449	2815.52
641.623	2905.28
639.799	2974.45
637.973	2857.38
636.146	2929.26
634.318	3003.85
632.492	3094.82
630.664	3135.14
628.836	3250.66
627.008	3203.41
625.178	3357.13
623.35	3409.65
621.52	3445.75
619.689	3443.58
617.859	3444.15
616.027	3577.15
614.195	3832.94
612.363	3797.93
610.531	3857.08
608.699	3906.65
606.865	4091.21
605.031	4323.4
603.197	4304.67
601.363	4240.98
599.529	4388.5
597.693	4571.37
595.857	4797.73
594.021	4743.51
592.186	4856.75
590.348	4854.25
588.51	5136.12
586.672	5284.55
584.834	5352.67
582.996	5306.55
581.156	5578.53
579.316	5729.43
577.477	6010.69
575.637	5921
573.795	6001.09
571.953	6233.21
570.111	6429.94
568.27	6526.14
566.428	6467.63
564.584	6557
562.74	6875.5
560.896	7122
559.053	6983.43
557.207	7002.12
555.361	7054.67
553.516	7118.04
551.67	7250.43
549.824	7009.09
547.977	6882.92
546.129	6962.5
544.281	7192.21
542.434	6952.46
540.584	6719.59
538.736	6593.62
536.887	6724.54
535.035	6843.23
533.186	6626.8
531.334	6486.12
529.482	6215.86
527.631	6172.55
525.779	6400.55
523.926	6265.45
522.074	5960.42
520.221	5964.41
518.365	5989.97
516.512	5949.46
514.656	5731.05
512.803	5572.04
510.945	5485.85
509.09	5445.49
507.232	5442.86
505.377	5144.05
503.52	4981.32
501.66	4811.94
499.803	5032.77
497.943	4883.63
496.084	4632.37
494.225	4609.76
492.365	4567
490.504	4568.61
488.645	4398.26
486.781	4178.29
484.92	4311.58
483.059	4230.01
481.195	4203.5
479.332	4060.27
477.469	3906.38
475.604	3925.57
473.74	4092.24
471.875	3975.98
470.01	3748.54
468.145	3727.55
466.277	3665.04
464.41	3737.83
462.543	3603.04
460.676	3480.37
458.809	3442.07
456.939	3490.75
455.07	3567.5
453.201	3489.08
451.332	3325.13
449.461	3339.04
447.59	3319.53
445.719	3378.86
443.848	3257.84
441.975	3302.46
440.104	3173.5
438.23	3239.48
436.355	3202.67
434.482	3093.84
432.607	3045.08
430.732	3127.03
428.857	3167.6
426.982	3132.19
425.105	3070.14
423.23	3076.06
421.354	3144.58
419.475	3135.83
417.598	3103.13
415.719	3087.74
413.84	3153.53
411.961	3115.52
410.08	3214.51
408.201	3127.31
406.32	3082.69
404.439	3139.09
402.557	3158.26
400.676	3145.54
398.793	3034.56
396.91	3069.67
395.027	3111.4
393.143	3117.28
391.258	3047.54
389.373	2953.95
387.488	2892.23
385.604	3009.52
383.717	3030
381.83	2989.51
379.943	2768.87
378.055	2899.32
376.168	3050.89
374.279	2945.56
372.391	2924.99
370.5	2782.7
368.611	2864.04
366.721	2831.6
364.83	2696.04
362.939	2727.11
361.047	2742.3
359.154	2783.91
357.262	2843.99
355.369	2749.53
353.477	2620.79
351.582	2659.75
349.688	2714.52
347.793	2769.27
345.896	2759.36
344.002	2599.12
342.105	2673.63
340.209	2688.79
338.311	2632.78
336.414	2616.33
334.516	2642.03
332.617	2663.76
330.717	2686.8
328.818	2650.6
326.918	2585.48
325.018	2621.67
323.117	2665.74
321.215	2608.54
319.312	2569.78
317.41	2534.98
315.508	2539.6
313.604	2624.35
311.701	2586.93
309.797	2427.44
307.891	2529.21
305.986	2552.21
304.08	2476.8
302.174	2359.45
300.268	2396.89
298.361	2459.22
296.453	2479.58
294.545	2472.41
292.637	2326.39
290.727	2467.25
288.818	2428.66
286.908	2496.12
284.998	2494.19
283.086	2394.14
281.176	2396.15
279.264	2514.55
277.352	2358.35
275.438	2432.26
273.525	2321.89
271.611	2374.87
269.697	2485.28
267.781	2271.83
265.867	2294.76
263.951	2343.77
262.035	2430.59
260.119	2466.5
258.201	2331.57
256.283	2291.87
254.365	2347.34
252.447	2401.47
250.527	2382.63
248.607	2315.61
246.688	2361.89
244.768	2395.14
242.846	2362
240.926	2309.36
239.002	2300.97
237.08	2318.59
235.158	2370.01
233.234	2282.32
231.311	2270.05
229.385	2303.25
227.461	2359.8
225.535	2334.53
223.609	2261.25
221.684	2204.87
219.756	2314.58
217.828	2304.91
215.9	2386.02
213.973	2298.55
212.043	2237.04
210.113	2267.57
208.184	2300.67
206.254	2219.78
204.322	2248.99
202.391	2181.11
200.459	2258.19
198.527	2199.39
196.594	2213.05
194.66	2180.15
192.727	2257.16
190.793	2312.15
188.857	2274.08
186.922	2276.08
184.986	2263.87
183.051	2267.16
181.113	2282.06
179.176	2211.78
177.238	2295.07
175.301	2428.61
173.361	2367.37
171.422	2413.16
169.482	2412.54
167.541	2370.68
165.602	2594.19
163.66	2566.47
161.717	2482.12
159.775	2513.65
157.832	2503.98
155.889	2678.28
153.945	2611.99
152	2530.3
150.055	2541.21
148.109	2593.23
146.164	2620.81
144.217	2545.63
142.27	2502.59
140.322	2516.05
138.375	2560.31
136.426	2505.75
134.477	2542.28
132.527	2522.38
130.578	2564.02
128.627	2606.92
126.676	2604.95
124.725	2647.81
122.771	2713.7
120.82	2768.04
118.867	2726.34
116.912	2755.05
114.959	2781.18
113.004	2797.07
111.049	2811.67
109.094	2823.7
107.137	2843.4
105.18	2843.91
103.223	2855.93
101.266	2993.07
99.3066	2950.14
97.3477	3005.51
95.3887	3139.94
93.4277	3188.85
91.4668	3228.8
89.5059	3189.68
87.5449	3255.1
85.582	3283.53
83.6211	3263.54
81.6562	3247.38
79.6934	3138.28
77.7285	3249.44
75.7637	3332.55
73.7988	3226.06
71.834	3235.36
69.8672	3354
67.9004	3476.38
65.9336	3535.16
63.9648	3329.67
61.9961	3077.3
60.0273	2703.17
58.0586	2127.42
56.0879	1447.93
54.1172	959.1
52.1465	615.128
50.1738	395.603
48.2031	248.452
46.2305	138.132
44.2559	105.154
42.2832	70.9278
40.3086	44.3177