File: PeakFitting/xrdData/jacobson_raman/C3_02137_532nm_5sec_1per_50x.txt
#Wave		#Intensity
1818.91	301.759
1817.34	292.179
1815.78	298.509
1814.21	272.916
1812.64	335.095
1811.07	304.719
1809.51	293.495
1807.94	272.707
1806.37	287.004
1804.8	269.413
1803.23	264.58
1801.67	310.742
1800.1	291.563
1798.53	275.578
1796.96	286.673
1795.39	277.063
1793.82	278.602
1792.25	283.323
1790.68	288.042
1789.1	280.031
1787.53	307.019
1785.96	276.741
1784.39	248.064
1782.82	305.25
1781.24	314.728
1779.67	284.471
1778.1	284.416
1776.52	297.069
1774.95	287.481
1773.38	296.953
1771.8	282.605
1770.22	279.375
1768.65	284.081
1767.07	315.76
1765.5	280.797
1763.92	283.914
1762.35	271.171
1760.77	309.169
1759.19	293.257
1757.62	280.52
1756.04	288.387
1754.46	304.172
1752.88	289.857
1751.3	270.796
1749.72	289.741
1748.14	340.339
1746.56	281.713
1744.98	303.81
1743.4	283.183
1741.82	319.506
1740.24	290.977
1738.66	301.986
1737.08	245.018
1735.5	327.153
1733.92	298.645
1732.33	274.888
1730.75	319.059
1729.17	292.148
1727.58	290.511
1726	331.495
1724.42	310.911
1722.83	285.602
1721.25	299.743
1719.66	255.519
1718.08	346.93
1716.49	280.642
1714.9	286.89
1713.32	255.312
1711.73	299.38
1710.14	291.442
1708.56	335.484
1706.97	310.221
1705.38	308.583
1703.79	292.78
1702.21	311.605
1700.62	280.073
1699.03	303.613
1697.44	289.396
1695.85	276.757
1694.26	298.711
1692.67	331.658
1691.08	276.587
1689.49	314.24
1687.89	265.478
1686.3	312.54
1684.71	315.617
1683.12	312.412
1681.53	282.526
1679.93	290.314
1678.34	312.22
1676.74	302.744
1675.15	315.228
1673.56	297.915
1671.96	313.531
1670.37	315.033
1668.77	332.205
1667.18	338.404
1665.58	321.104
1663.98	310.075
1662.39	325.668
1660.79	330.297
1659.19	316.143
1657.59	319.207
1656	311.319
1654.4	303.434
1652.8	295.552
1651.2	300.181
1649.6	282.924
1648	323.498
1646.4	285.931
1644.8	276.499
1643.2	301.43
1641.6	309.175
1640	307.549
1638.4	296.559
1636.79	357.357
1635.19	337
1633.59	299.493
1631.98	296.311
1630.38	322.756
1628.78	300.864
1627.17	294.567
1625.57	325.669
1623.96	361.433
1622.36	325.533
1620.75	308.335
1619.15	312.941
1617.54	306.648
1615.94	323.703
1614.33	284.736
1612.72	334.456
1611.12	335.94
1609.51	304.771
1607.9	335.799
1606.29	321.739
1604.68	317.009
1603.07	312.281
1601.46	340.175
1599.85	329.232
1598.24	276.372
1596.63	282.523
1595.02	291.775
1593.41	316.54
1591.8	314.922
1590.19	308.651
1588.58	330.295
1586.96	310.07
1585.35	311.554
1583.74	300.64
1582.12	326.915
1580.51	325.297
1578.89	292.705
1577.28	287.997
1575.67	351.406
1574.05	312.638
1572.44	311.024
1570.82	340.351
1569.2	315.531
1567.59	298.453
1565.97	273.653
1564.35	330.786
1562.73	324.534
1561.12	295.108
1559.5	273.419
1557.88	313.515
1556.26	299.551
1554.64	318.012
1553.02	299.422
1551.4	339.478
1549.78	243.755
1548.16	322.366
1546.54	286.829
1544.92	311.435
1543.29	299.037
1541.67	334.417
1540.05	288.123
1538.43	335.814
1536.8	295.699
1535.18	307.953
1533.55	297.111
1531.93	284.734
1530.31	293.905
1528.68	318.457
1527.06	330.693
1525.43	278.337
1523.8	318.251
1522.18	316.645
1520.55	299.672
1518.92	291.925
1517.3	285.717
1515.67	274.905
1514.04	296.341
1512.41	280.926
1510.78	311.561
1509.15	291.545
1507.52	268.47
1505.89	299.088
1504.26	317.424
1502.63	312.756
1501	309.623
1499.37	295.763
1497.74	300.295
1496.11	291.039
1494.47	344.577
1492.84	309.286
1491.21	316.873
1489.57	293.847
1487.94	290.723
1486.31	273.832
1484.67	298.243
1483.04	281.358
1481.4	296.584
1479.77	301.105
1478.13	308.68
1476.49	285.696
1474.86	313.127
1473.22	300.842
1471.58	299.249
1469.95	277.814
1468.31	318.958
1466.67	320.414
1465.03	291.36
1463.39	282.146
1461.75	285.134
1460.11	289.645
1458.47	275.864
1456.83	301.708
1455.19	298.595
1453.55	286.344
1451.91	271.054
1450.26	286.219
1448.62	305.943
1446.98	275.441
1445.34	279.945
1443.69	302.7
1442.05	305.675
1440.4	282.801
1438.76	294.9
1437.11	306.993
1435.47	320.6
1433.82	270.399
1432.18	308.309
1430.53	283.946
1428.88	283.884
1427.24	300.516
1425.59	280.724
1423.94	300.384
1422.29	317.002
1420.64	306.317
1419	277.444
1417.35	304.666
1415.7	312.176
1414.05	307.562
1412.4	293.861
1410.74	295.311
1409.09	314.929
1407.44	273.988
1405.79	298.142
1404.14	285.971
1402.48	311.625
1400.83	285.845
1399.18	308.463
1397.53	338.629
1395.87	288.678
1394.22	318.835
1392.56	261.357
1390.91	314.163
1389.25	297.483
1387.6	285.339
1385.94	309.426
1384.28	297.285
1382.62	267.044
1380.97	274.527
1379.31	275.974
1377.65	309.083
1375.99	284.896
1374.33	305.932
1372.68	299.837
1371.02	305.796
1369.36	275.607
1367.7	289.097
1366.04	280.001
1364.37	313.049
1362.71	284.39
1361.05	284.327
1359.39	276.743
1357.72	309.763
1356.06	266.097
1354.4	303.613
1352.74	265.978
1351.07	277.938
1349.41	300.407
1347.74	292.831
1346.08	264.24
1344.41	316.717
1342.75	270.125
1341.08	313.575
1339.41	318.006
1337.75	289.44
1336.08	319.363
1334.41	299.805
1332.74	280.255
1331.07	307.163
1329.41	304.098
1327.74	308.523
1326.07	282.999
1324.4	303.894
1322.73	297.84
1321.05	294.781
1319.38	297.707
1317.71	311.101
1316.04	270.657
1314.37	313.952
1312.7	304.914
1311.02	267.487
1309.35	303.284
1307.68	301.722
1306	286.721
1304.33	307.559
1302.65	308.983
1300.98	313.391
1299.3	295.417
1297.62	281.926
1295.95	313.181
1294.27	283.29
1292.6	268.32
1290.92	287.635
1289.24	303.96
1287.56	265.161
1285.88	282.973
1284.21	275.465
1282.53	303.688
1280.85	287.248
1279.17	293.136
1277.48	319.848
1275.8	272.182
1274.12	318.217
1272.44	280.979
1270.76	282.403
1269.08	303.143
1267.39	304.561
1265.71	295.581
1264.03	299.969
1262.34	317.718
1260.66	328.037
1258.97	280.475
1257.29	318.988
1255.6	283.316
1253.92	320.327
1252.23	278.741
1250.54	286.09
1248.86	314.183
1247.17	277.071
1245.48	281.453
1243.79	328.782
1242.11	284.288
1240.42	269.421
1238.73	319.68
1237.04	331.445
1235.35	338.768
1233.66	331.296
1231.97	277.99
1230.28	314.886
1228.59	329.595
1226.89	320.655
1225.2	316.15
1223.51	298.355
1221.82	313.055
1220.12	357.275
1218.43	311.438
1216.73	337.93
1215.04	311.298
1213.35	311.228
1211.65	359.822
1209.96	327.305
1208.26	330.179
1206.56	318.316
1204.87	352.131
1203.17	343.214
1201.47	326.937
1199.77	353.365
1198.07	312.069
1196.38	348.791
1194.68	364.897
1192.98	355.989
1191.28	366.204
1189.58	349.947
1187.88	392.499
1186.18	342.441
1184.47	382.036
1182.77	351.1
1181.07	342.209
1179.37	380.31
1177.66	377.288
1175.96	349.316
1174.26	375.65
1172.55	393.17
1170.85	365.213
1169.14	359.265
1167.44	372.379
1165.73	392.815
1164.03	394.192
1162.32	416.079
1160.61	388.155
1158.91	380.745
1157.2	373.339
1155.49	387.892
1153.78	392.195
1152.07	412.589
1150.37	394.943
1148.66	396.316
1146.95	422.544
1145.24	407.831
1143.53	416.508
1141.81	420.797
1140.1	433.849
1138.39	445.434
1136.68	433.653
1134.96	413.118
1133.25	392.592
1131.54	427.522
1129.83	444.931
1128.11	403.993
1126.4	373.281
1124.68	400.895
1122.97	421.209
1121.25	426.943
1119.54	448.698
1117.82	422.38
1116.1	442.671
1114.38	449.85
1112.67	410.449
1110.95	423.453
1109.23	418.993
1107.51	430.534
1105.79	434.799
1104.07	433.247
1102.35	452.045
1100.63	447.583
1098.91	399.537
1097.19	472.073
1095.47	437.114
1093.75	441.37
1092.03	428.207
1090.3	449.878
1088.58	423.66
1086.86	436.619
1085.13	429.269
1083.41	437.871
1081.68	430.524
1079.96	453.615
1078.23	452.063
1076.51	436.026
1074.78	428.686
1073.05	424.245
1071.33	412.568
1069.6	463.13
1067.87	410.935
1066.14	439.774
1064.41	403.517
1062.69	391.858
1060.96	409.117
1059.23	410.469
1057.5	390.147
1055.77	397.281
1054.04	405.857
1052.3	399.989
1050.57	379.687
1048.84	407.025
1047.11	402.604
1045.38	403.955
1043.64	360.592
1041.91	387.909
1040.17	390.705
1038.44	371.878
1036.71	366.03
1034.97	391.88
1033.23	373.066
1031.5	370.101
1029.76	359.939
1028.03	372.812
1026.29	354.019
1024.55	355.378
1022.81	373.997
1021.07	340.835
1019.33	340.758
1017.6	321.994
1015.86	342.041
1014.12	357.768
1012.38	357.687
1010.63	337.499
1008.89	344.602
1007.15	348.83
1005.41	377.455
1003.67	348.672
1001.93	360.069
1000.18	357.119
998.439	388.584
996.695	366.992
994.951	332.511
993.205	336.734
991.461	345.253
989.715	373.82
987.969	355.12
986.223	340.723
984.477	349.234
982.729	319.104
980.982	343.353
979.234	318.959
977.486	360.357
975.736	337.4
973.988	304.449
972.238	310.096
970.488	335.742
968.738	347.092
966.988	358.438
965.236	325.519
963.484	309.744
961.734	328.225
959.98	295.336
958.229	323.797
956.475	320.871
954.723	357.868
952.969	347.809
951.215	316.377
949.459	282.11
947.705	334.751
945.949	326.13
944.193	323.209
942.438	347.335
940.68	345.833
938.924	324.411
937.166	308.69
935.408	310.042
933.65	346.94
931.891	317.008
930.133	329.728
928.373	289.867
926.613	304.007
924.854	329.503
923.092	340.787
921.33	312.317
919.57	316.504
917.809	302.242
916.045	322.035
914.283	306.36
912.52	294.946
910.756	293.461
908.992	296.229
907.229	308.915
905.463	342.846
903.699	287.529
901.934	307.288
900.168	298.724
898.4	295.825
896.635	300.003
894.867	281.542
893.1	270.163
891.332	295.556
889.564	330.834
887.795	306.729
886.025	279.809
884.256	278.332
882.486	339.008
880.717	292.328
878.945	297.909
877.174	309.133
875.402	289.305
873.631	289.239
871.859	297.637
870.086	318.723
868.312	281.992
866.539	300.253
864.766	284.682
862.992	278.981
861.217	304.274
859.441	297.163
857.666	287.239
855.891	267.465
854.113	316.663
852.338	315.183
850.561	241.961
848.783	271.44
847.004	272.785
845.227	290.998
843.447	267.038
841.668	288.055
839.889	279.56
838.109	275.283
836.328	278.028
834.547	329.908
832.766	293.34
830.984	290.467
829.203	274.969
827.42	287.529
825.637	269.234
823.854	264.967
822.07	267.709
820.287	308.286
818.502	285.8
816.717	270.327
814.932	288.47
813.146	271.604
811.359	309.334
809.574	323.257
807.787	257.427
806	293.735
804.211	265.7
802.424	275.426
800.635	254.396
798.846	257.133
797.057	272.443
795.268	284.952
793.477	263.939
791.686	268.067
789.895	258.235
788.104	283.295
786.312	269.278
784.52	253.873
782.727	274.733
780.934	270.488
779.141	295.517
777.346	259.215
775.553	256.369
773.758	284.17
771.963	253.466
770.166	261.762
768.371	274.231
766.574	282.518
764.777	261.582
762.98	279.606
761.184	254.509
759.385	264.183
757.586	259.952
755.787	284.909
753.988	248.717
752.189	269.498
750.389	268.047
748.588	259.654
746.787	270.7
744.986	252.596
743.184	266.414
741.383	266.352
739.58	263.517
737.777	266.23
735.973	248.147
734.17	241.16
732.365	231.405
730.561	259.059
728.756	274.235
726.951	276.941
725.145	279.646
723.338	256.053
721.531	272.599
719.725	272.536
717.916	261.408
716.109	277.942
714.301	265.436
712.492	258.464
710.684	277.75
708.873	269.397
707.062	258.285
705.252	288.605
703.441	276.114
701.631	259.487
699.818	309.105
698.006	273.164
696.193	281.377
694.381	318.544
692.568	289.519
690.754	243.967
688.939	243.911
687.125	289.319
685.311	289.252
683.494	269.906
681.68	265.714
679.863	264.276
678.047	275.224
676.229	264.154
674.412	261.342
672.594	309.412
670.775	272.22
668.957	258.412
667.137	265.223
665.318	269.284
663.498	303.561
661.678	263.666
659.855	263.605
658.035	289.624
656.213	293.674
654.391	299.094
652.568	278.45
650.744	259.186
648.922	292.031
647.098	313.895
645.273	302.859
643.449	293.198
641.623	324.635
639.799	349.21
637.973	350.498
636.146	318.934
634.318	328.439
632.492	365.304
630.664	369.323
628.836	374.707
627.008	408.801
625.178	412.807
623.35	393.579
621.52	423.545
619.689	428.911
617.859	462.952
616.027	472.402
614.195	488.672
612.363	480.37
610.531	477.53
608.699	527.889
606.865	550.949
605.031	541.277
603.197	575.229
601.363	575.095
599.529	610.385
597.693	612.967
595.857	648.232
594.021	637.188
592.186	649.291
590.348	634.169
588.51	737.424
586.672	718.209
584.834	724.841
582.996	743.706
581.156	772.077
579.316	785.487
577.477	789.379
575.637	770.178
573.795	828.393
571.953	844.491
570.111	852.438
568.27	865.809
566.428	828.974
564.584	859.978
562.74	888.255
560.896	863.643
559.053	866.151
557.207	833.424
555.361	879.294
553.516	853.352
551.67	904.611
549.824	852.951
547.977	831.094
546.129	826.839
544.281	838.821
542.434	846.74
540.584	791.096
538.736	755.759
536.887	789.373
535.035	747.295
533.186	770.087
531.334	755.048
529.482	722.461
527.631	677.738
525.779	769.362
523.926	692.262
522.074	667.815
520.221	621.798
518.365	625.697
516.512	649.816
514.656	586.314
512.803	599.651
510.945	576.607
509.09	571.083
507.232	541.323
505.377	550.619
503.52	516.84
501.66	458.856
499.803	528.703
497.943	494.954
496.084	494.836
494.225	477.243
492.365	438.153
490.504	460.892
488.645	416.451
486.781	424.41
484.92	428.338
483.059	426.894
481.195	436.187
479.332	410.589
477.469	402.443
475.604	406.371
473.74	417.001
471.875	379.367
470.01	355.153
468.145	351.049
466.277	363.021
464.41	389.72
462.543	361.509
460.676	392.211
458.809	331.895
456.939	330.477
455.07	366.515
453.201	328.982
451.332	355.644
449.461	338.182
447.59	360.819
445.719	358.061
443.848	324.582
441.975	344.535
440.104	327.096
438.23	349.709
436.355	348.291
434.482	340.202
432.607	332.118
430.732	332.038
428.857	323.959
426.982	342.541
425.105	329.134
423.23	331.719
421.354	331.639
419.475	310.254
417.598	332.811
415.719	300.789
413.84	303.377
411.961	325.919
410.08	323.18
408.201	327.091
406.32	297.767
404.439	328.262
402.557	358.742
400.676	320.133
398.793	304.12
396.91	315.995
395.027	305.3
393.143	314.515
391.258	306.479
389.373	271.917
387.488	344.787
385.604	274.437
383.717	316.785
381.83	311.407
379.943	295.434
378.055	298.011
376.168	270.131
374.279	285.951
372.391	313.676
370.5	301.691
368.611	253.993
366.721	284.35
364.83	259.158
362.939	264.383
361.047	274.891
359.154	292
357.262	272.115
355.369	279.972
353.477	273.302
351.582	278.515
349.688	241.496
347.793	251.992
345.896	292.819
344.002	255.824
342.105	270.263
340.209	275.469
338.311	268.813
336.414	263.477
334.516	279.217
332.617	276.515
330.717	271.181
328.818	276.379
326.918	251.311
325.018	270.981
323.117	280.119
321.215	260.328
319.312	239.233
317.41	241.802
315.508	246.997
313.604	258.757
311.701	249.501
309.797	236.311
307.891	318.941
305.986	228.321
304.08	242.694
302.174	242.634
300.268	237.329
298.361	250.379
296.453	237.211
294.545	238.462
292.637	252.812
290.727	225.248
288.818	252.686
286.908	231.68
284.998	230.313
283.086	221.098
281.176	209.271
279.264	231.448
277.352	239.234
275.438	218.263
273.525	237.808
271.611	239.054
269.697	211.569
267.781	227.183
265.867	223.21
263.951	219.239
262.035	232.231
260.119	236.085
258.201	221.682
256.283	243.788
254.365	208.536
252.447	263.211
250.527	229.274
248.607	217.495
246.688	209.628
244.768	223.894
242.846	199.111
240.926	225.081
239.002	206.814
237.08	230.169
235.158	221.01
233.234	198.858
231.311	215.7
229.385	226.038
227.461	206.499
225.535	196.059
223.609	210.288
221.684	211.532
219.756	208.883
217.828	233.475
215.9	208.777
213.973	212.612
212.043	195.709
210.113	185.293
208.184	189.132
206.254	212.395
204.322	217.519
202.391	221.347
200.459	222.584
198.527	213.47
196.594	188.84
194.66	205.602
192.727	215.891
190.793	228.759
188.857	195.106
186.922	198.931
184.986	191.131
183.051	211.739
181.113	224.592
179.176	176.788
177.238	199.964
175.301	238.604
173.361	221.78
171.422	201.097
169.482	210.066
167.541	249.952
165.602	217.685
163.66	222.779
161.717	207.272
159.775	217.515
157.832	213.598
155.889	225.119
153.945	244.352
152	227.573
150.055	219.801
148.109	206.893
146.164	231.248
144.217	224.766
142.27	220.854
140.322	215.662
138.375	219.455
136.426	221.963
134.477	230.883
132.527	201.329
130.578	225.634
128.627	203.785
126.676	207.576
124.725	230.578
122.771	222.833
120.82	215.093
118.867	232.955
116.912	231.614
114.959	195.732
113.004	211.027
111.049	231.429
109.094	217.306
107.137	226.194
105.18	236.354
103.223	217.132
101.266	279.643
99.3066	238.718
97.3477	232.273
95.3887	230.934
93.4277	261.485
91.4668	251.214
89.5059	242.222
87.5449	226.863
85.582	252.285
83.6211	250.943
81.6562	243.235
79.6934	246.989
77.7285	257.104
75.7637	246.855
73.7988	254.421
71.834	268.342
69.8672	239.026
67.9004	283.449
65.9336	247.792
63.9648	269.321
61.9961	265.437
60.0273	226.005
58.0586	200.556
56.0879	139.59
54.1172	95.1488
52.1465	97.6595
50.1738	71.0056
48.2031	60.8453
46.2305	55.7596
44.2559	58.2781
42.2832	69.6613
40.3086	45.5839