File: PeakFitting/xrdData/jacobson_raman/C3_02137_532nm_5sec_10per_50x.txt
#Wave		#Intensity
1818.91	2038.87
1817.34	2101.14
1815.78	2174.16
1814.21	2168.96
1812.64	2104.72
1811.07	2067.62
1809.51	2118.27
1807.94	2114.67
1806.37	2109.48
1804.8	2109.08
1803.23	2087.95
1801.67	2100.3
1800.1	2066.43
1798.53	2155.24
1796.96	2170.75
1795.39	2261.09
1793.82	2091.9
1792.25	2110.6
1790.68	2151.56
1789.1	2135.23
1787.53	2107.78
1785.96	2139.18
1784.39	2044.94
1782.82	2127.21
1781.24	2087.06
1779.67	2158.17
1778.1	2143.45
1776.52	2201.8
1774.95	2141.02
1773.38	2129.48
1771.8	2200.51
1770.22	2223.89
1768.65	2201.23
1767.07	2154.78
1765.5	2140.08
1763.92	2160.28
1762.35	2216.94
1760.77	2170.53
1759.19	2179.61
1757.62	2082.5
1756.04	2161.32
1754.46	2149.8
1752.88	2207.98
1751.3	2209.12
1749.72	2099.44
1748.14	2089.52
1746.56	2122.34
1744.98	2175.72
1743.4	2153.14
1741.82	2219.14
1740.24	2172.84
1738.66	2172.4
1737.08	2187.78
1735.5	2223.69
1733.92	2209.02
1732.33	2162.77
1730.75	2118.11
1729.17	2133.47
1727.58	2193.04
1726	2208.39
1724.42	2185.85
1722.83	2155.43
1721.25	2096.62
1719.66	2137.21
1718.08	2286.59
1716.49	2230.94
1714.9	2167.44
1713.32	2187.49
1711.73	2094.08
1710.14	2180.3
1708.56	2164.11
1706.97	2277.05
1705.38	2152.21
1703.79	2076.22
1702.21	2190.68
1700.62	2204.4
1699.03	2194.51
1697.44	2201.92
1695.85	2190.47
1694.26	2153.86
1692.67	2145.56
1691.08	2173.41
1689.49	2199.68
1687.89	2236.93
1686.3	2220.76
1684.71	2162.21
1683.12	2210.43
1681.53	2285.32
1679.93	2270.73
1678.34	2246.73
1676.74	2200.78
1675.15	2267.76
1673.56	2254.75
1671.96	2229.2
1670.37	2245.98
1668.77	2200.08
1667.18	2215.29
1665.58	2221.1
1663.98	2284.85
1662.39	2287.51
1660.79	2175.89
1659.19	2255.26
1657.59	2231.32
1656	2313.77
1654.4	2305.47
1652.8	2339.39
1651.2	2237.28
1649.6	2308.72
1648	2262.92
1646.4	2273.39
1644.8	2251.04
1643.2	2222.46
1641.6	2267.28
1640	2374.53
1638.4	2306.92
1636.79	2353.25
1635.19	2344.96
1633.59	2260.24
1631.98	2227.01
1630.38	2251.49
1628.78	2343
1627.17	2283.28
1625.57	2279.69
1623.96	2187.29
1622.36	2196.18
1620.75	2264.23
1619.15	2327.59
1617.54	2297.53
1615.94	2290.82
1614.33	2262.33
1612.72	2258.74
1611.12	2258.27
1609.51	2349.53
1607.9	2280.63
1606.29	2197.77
1604.68	2200.42
1603.07	2290.06
1601.46	2303.56
1599.85	2404.02
1598.24	2263.77
1596.63	2322.28
1595.02	2245.74
1593.41	2299.57
1591.8	2342.52
1590.19	2399.41
1588.58	2232.98
1586.96	2317.77
1585.35	2311.08
1583.74	2329.19
1582.12	2370.52
1580.51	2309.61
1578.89	2306.02
1577.28	2280.75
1575.67	2318.97
1574.05	2355.62
1572.44	2314.88
1570.82	2323.67
1569.2	2216.45
1567.59	2308.76
1565.97	2367.02
1564.35	2347.96
1562.73	2265.56
1561.12	2261.98
1559.5	2298.57
1557.88	2344.41
1556.26	2283.69
1554.64	2341.86
1553.02	2329.01
1551.4	2223.58
1549.78	2324.93
1548.16	2341.39
1546.54	2436.5
1544.92	2375.85
1543.29	2265.9
1541.67	2328.59
1540.05	2321.93
1538.43	2395.37
1536.8	2344.03
1535.18	2355.84
1533.55	2344.56
1531.93	2385.61
1530.31	2417.41
1528.68	2346.12
1527.06	2362.53
1525.43	2348.18
1523.8	2343.06
1522.18	2325.65
1520.55	2429.65
1518.92	2338.47
1517.3	2322.6
1515.67	2335.92
1514.04	2366.12
1512.41	2305.74
1510.78	2354.36
1509.15	2300.14
1507.52	2308.85
1505.89	2317.55
1504.26	2367.65
1502.63	2428.46
1501	2334.43
1499.37	2327.79
1497.74	2307.37
1496.11	2231.81
1494.47	2370.69
1492.84	2351.8
1491.21	2400.27
1489.57	2349.24
1487.94	2278.35
1486.31	2401.76
1484.67	2350.77
1483.04	2322.73
1481.4	2274.83
1479.77	2337
1478.13	2298.29
1476.49	2398.62
1474.86	2289.65
1473.22	2298.31
1471.58	2273.38
1469.95	2297.31
1468.31	2383.79
1466.67	2424.47
1465.03	2341.56
1463.39	2302.92
1461.75	2268.87
1460.11	2323.25
1458.47	2356.28
1456.83	2329.86
1455.19	2257.74
1453.55	2327.31
1451.91	2352.69
1450.26	2323.24
1448.62	2331.87
1446.98	2372.44
1445.34	2324.76
1443.69	2340.98
1442.05	2398.25
1440.4	2367.32
1438.76	2286.23
1437.11	2308.53
1435.47	2311.06
1433.82	2406.25
1432.18	2417.87
1430.53	2379.38
1428.88	2375.82
1427.24	2405.65
1425.59	2321.66
1423.94	2459.2
1422.29	2393.44
1420.64	2342.87
1419	2419.68
1417.35	2259.99
1415.7	2304.95
1414.05	2378.68
1412.4	2456.92
1410.74	2379.15
1409.09	2292.32
1407.44	2317.54
1405.79	2335.19
1404.14	2363.42
1402.48	2393.16
1400.83	2410.78
1399.18	2318.01
1397.53	2393.08
1395.87	2330.58
1394.22	2426.78
1392.56	2305.38
1390.91	2315.44
1389.25	2322.48
1387.6	2341.59
1385.94	2490.5
1384.28	2320.93
1382.62	2340.03
1380.97	2322.92
1379.31	2345.03
1377.65	2397.28
1375.99	2398.25
1374.33	2358.54
1372.68	2297.74
1371.02	2369.54
1369.36	2385.58
1367.7	2451.3
1366.04	2389.04
1364.37	2317.77
1362.71	2369.92
1361.05	2346.83
1359.39	2386.91
1357.72	2314.2
1356.06	2334.74
1354.4	2350.75
1352.74	2332.19
1351.07	2387.26
1349.41	2392.74
1347.74	2368.18
1346.08	2258.05
1344.41	2422.66
1342.75	2393.61
1341.08	2423.08
1339.41	2334.04
1337.75	2423.5
1336.08	2356.99
1334.41	2398.44
1332.74	2382.91
1331.07	2374.89
1329.41	2392.34
1327.74	2357.36
1326.07	2479.61
1324.4	2401.21
1322.73	2444.08
1321.05	2403.13
1319.38	2354.73
1317.71	2411.04
1316.04	2455.36
1314.37	2403.98
1312.7	2351.13
1311.02	2307.26
1309.35	2393.4
1307.68	2510.87
1306	2477.45
1304.33	2453.01
1302.65	2334.54
1300.98	2490.71
1299.3	2443.9
1297.62	2418
1295.95	2450.27
1294.27	2436.3
1292.6	2437.24
1290.92	2399.44
1289.24	2500.22
1287.56	2451.99
1285.88	2436.55
1284.21	2441.96
1282.53	2457.79
1280.85	2420.03
1279.17	2602.51
1277.48	2476.96
1275.8	2454.1
1274.12	2371.76
1272.44	2433.67
1270.76	2470.28
1269.08	2448.92
1267.39	2437.97
1265.71	2403.26
1264.03	2436.88
1262.34	2425.94
1260.66	2495.16
1258.97	2494.6
1257.29	2474.75
1255.6	2437.11
1253.92	2522.58
1252.23	2539.8
1250.54	2594.08
1248.86	2506.06
1247.17	2502.53
1245.48	2553.82
1243.79	2529.55
1242.11	2450.5
1240.42	2452.91
1238.73	2481.96
1237.04	2512.47
1235.35	2596.23
1233.66	2576.42
1231.97	2513.74
1230.28	2535.35
1228.59	2520
1226.89	2614
1225.2	2567.61
1223.51	2589.19
1221.82	2569.41
1220.12	2588.03
1218.43	2577.11
1216.73	2631.13
1215.04	2587.75
1213.35	2683.05
1211.65	2623.46
1209.96	2718.7
1208.26	2763.78
1206.56	2673.26
1204.87	2615.2
1203.17	2710.36
1201.47	2724.47
1199.77	2770.97
1198.07	2792.43
1196.38	2702.03
1194.68	2710.25
1192.98	2783.19
1191.28	2753.14
1189.58	2808.4
1187.88	2735.73
1186.18	2804.19
1184.47	2785.93
1182.77	2852.87
1181.07	2850.76
1179.37	2851.59
1177.66	2902.33
1175.96	2847.37
1174.26	2924.49
1172.55	2895.96
1170.85	2836.64
1169.14	2869.72
1167.44	2942.38
1165.73	2874.29
1164.03	2929.33
1162.32	2821.72
1160.61	3014.43
1158.91	2931.74
1157.2	2897.4
1155.49	2978.72
1153.78	2998.53
1152.07	2939.33
1150.37	2985.48
1148.66	3044.76
1146.95	3090.86
1145.24	3005.38
1143.53	3055.85
1141.81	2947.04
1140.1	3124.59
1138.39	3078.61
1136.68	3139.24
1134.96	3064.08
1133.25	3006.47
1131.54	3100.63
1129.83	3097.01
1128.11	3140.06
1126.4	3116.02
1124.68	3186.75
1122.97	3151.05
1121.25	3226.11
1119.54	3283.65
1117.82	3204.26
1116.1	3212.27
1114.38	3207.18
1112.67	3196.27
1110.95	3250.84
1109.23	3229.74
1107.51	3310.46
1105.79	3348.97
1104.07	3308.96
1102.35	3277.69
1100.63	3333.62
1098.91	3356.11
1097.19	3247.86
1095.47	3322.64
1093.75	3422.07
1092.03	3408.23
1090.3	3363.93
1088.58	3289.17
1086.86	3289.87
1085.13	3339.89
1083.41	3429.03
1081.68	3393.46
1079.96	3352.11
1078.23	3342.66
1076.51	3444.75
1074.78	3371.56
1073.05	3388.17
1071.33	3387.4
1069.6	3350.45
1067.87	3375.74
1066.14	3390.89
1064.41	3427.72
1062.69	3276.57
1060.96	3322.09
1059.23	3363.25
1057.5	3284.46
1055.77	3355.94
1054.04	3269.97
1052.3	3259.12
1050.57	3356.55
1048.84	3377.44
1047.11	3406.98
1045.38	3308.1
1043.64	3160.23
1041.91	3158.07
1040.17	3317.39
1038.44	3312.31
1036.71	3191.95
1034.97	3264.71
1033.23	3229.4
1031.5	3251.71
1029.76	3255.29
1028.03	3243.03
1026.29	3190.49
1024.55	3293.36
1022.81	3229.32
1021.07	3291.87
1019.33	3148.78
1017.6	3175.37
1015.86	3209.15
1014.12	3163.88
1012.38	3286.7
1010.63	3281.64
1008.89	3181.83
1007.15	3179.67
1005.41	3252.14
1003.67	3232.75
1001.93	3200.46
1000.18	3214.07
998.439	3168.89
996.695	3201.15
994.951	3263.48
993.205	3099.39
991.461	3128.77
989.715	3100.85
987.969	3130.21
986.223	3178.18
984.477	3167.44
982.729	3085.15
980.982	3131.66
979.234	3176.72
977.486	3053.02
975.736	3133.82
973.988	3023.05
972.238	3029.51
970.488	3055.96
968.738	3095.26
966.988	2944.62
965.236	3038.18
963.484	3013.22
961.734	3009.68
959.98	3011.85
958.229	3043.98
956.475	3010.48
954.723	2986.99
952.969	3011.97
951.215	3015.56
949.459	3051.92
947.705	3036.98
945.949	2940.87
944.193	2992.88
942.438	3032.06
940.68	3071.22
938.924	3013.61
937.166	2907.66
935.408	2941.13
933.65	3001.6
931.891	2927
930.133	2988.87
928.373	2902.93
926.613	2944.89
924.854	2952.74
923.092	2993.25
921.33	2961.34
919.57	2959.24
917.809	2907.49
916.045	2983.43
914.283	2950.13
912.52	2972.15
910.756	2859.48
908.992	2901.35
907.229	2917.69
905.463	3007.7
903.699	3045.25
901.934	2946.85
900.168	2906.54
898.4	2908.71
896.635	2984.46
894.867	2975.29
893.1	2922.28
891.332	2999.39
889.564	2939.33
887.795	3009.34
886.025	3019.96
884.256	2948.63
882.486	2933.83
880.717	2972.7
878.945	2932.49
877.174	2881.01
875.402	2883.17
873.631	2886.75
871.859	2836.72
870.086	2893.9
868.312	2852.35
866.539	2846.06
864.766	2838.36
862.992	2865.9
861.217	2872.29
859.441	2871.63
857.666	2841.41
855.891	2790.08
854.113	2886.56
852.338	2860.57
850.561	2858.51
848.783	2817.07
847.004	2819.24
845.227	2841.09
843.447	2876.99
841.668	2801.86
839.889	2868.65
838.109	2834.29
836.328	2919.3
834.547	2939.69
832.766	2811.29
830.984	2861.17
829.203	2826.85
827.42	2854.25
825.637	2934.93
823.854	2857.15
822.07	2792.03
820.287	2836.23
818.502	2919.64
816.717	2997.41
814.932	2898.7
813.146	2812.64
811.359	2900.18
809.574	2879.92
807.787	2977.2
806	2893.99
804.211	2966.05
802.424	2902.46
800.635	2864.05
798.846	2842.44
797.057	2859.95
795.268	2818.79
793.477	2818.14
791.686	2938.97
789.895	2950.86
788.104	2869.24
786.312	2843.47
784.52	2890.24
782.727	2906.32
780.934	2895.89
779.141	2872.93
777.346	2851.36
775.553	2875.79
773.758	2987.96
771.963	2932.97
770.166	2921.15
768.371	2742.31
766.574	2887.81
764.777	2962.28
762.98	2925.43
761.184	2910.86
759.385	2805.91
757.586	2834.45
755.787	2883.84
753.988	2906.8
752.189	2899.18
750.389	2851.3
748.588	2877.03
746.787	2963.82
744.986	2953.43
743.184	2833.42
741.383	2856.35
739.58	2843.21
737.777	2967.36
735.973	3006.88
734.17	2917.48
732.365	2970.85
730.561	2992.34
728.756	3109.38
726.951	2925.88
725.145	2963.97
723.338	3031.11
721.531	3037.33
719.725	3053.23
717.916	3078.81
716.109	3004.81
714.301	3033.16
712.492	3137.5
710.684	3128.49
708.873	3115.33
707.062	2991.69
705.252	3047.62
703.441	3158.74
701.631	3253.25
699.818	3143.49
698.006	3193.81
696.193	3148.94
694.381	3188.2
692.568	3159.89
690.754	3185.35
688.939	3126.74
687.125	3124.64
685.311	3228.6
683.494	3236.12
681.68	3165.16
679.863	3182.32
678.047	3228.38
676.229	3264.78
674.412	3206.25
672.594	3237.14
670.775	3312.01
668.957	3312.62
667.137	3320.1
665.318	3250.64
663.498	3365.27
661.678	3323.29
659.855	3381.56
658.035	3450.78
656.213	3473.31
654.391	3408.02
652.568	3456.62
650.744	3587.47
648.922	3608.57
647.098	3472.03
645.273	3498.64
643.449	3523.86
641.623	3699.74
639.799	3713.95
637.973	3780.18
636.146	3678.01
634.318	3712.73
632.492	3911.63
630.664	3946.28
628.836	3952.21
627.008	4029.22
625.178	4074.76
623.35	4185.87
621.52	4243.65
619.689	4142.95
617.859	4277.19
616.027	4358.11
614.195	4439
612.363	4443.42
610.531	4501.06
608.699	4565.49
606.865	4657.16
605.031	4766.51
603.197	4920.79
601.363	4851.51
599.529	5020.69
597.693	5074
595.857	5210.37
594.021	5236.38
592.186	5295.05
590.348	5375.47
588.51	5522.52
586.672	5707.58
584.834	5713.05
582.996	5594.79
581.156	5925.15
579.316	5944.15
577.477	6285.14
575.637	6127.46
573.795	6083.93
571.953	6367.63
570.111	6417.72
568.27	6558.71
566.428	6616.87
564.584	6628.89
562.74	6701.92
560.896	6917.28
559.053	7005.12
557.207	6930.3
555.361	7003.19
553.516	7099.07
551.67	7217.93
549.824	7217.59
547.977	7095.43
546.129	7197.96
544.281	7384.33
542.434	7354.19
540.584	7269.97
538.736	7022.2
536.887	7080.02
535.035	7220.25
533.186	7221.25
531.334	7174.98
529.482	7018
527.631	7000.14
525.779	7113.22
523.926	7115.59
522.074	6887.26
520.221	6810.11
518.365	6742.43
516.512	6744.88
514.656	6666.46
512.803	6507.22
510.945	6488.17
509.09	6446.23
507.232	6388.15
505.377	6226.44
503.52	5989.43
501.66	6113.15
499.803	6065.96
497.943	6004
496.084	5720.2
494.225	5667.76
492.365	5755.12
490.504	5693.29
488.645	5608.65
486.781	5372.28
484.92	5477.09
483.059	5456.99
481.195	5368.46
479.332	5318.88
477.469	5222.37
475.604	5147.36
473.74	5229.27
471.875	5206.58
470.01	5122.25
468.145	5040.63
466.277	5030.05
464.41	4976.62
462.543	5018.28
460.676	4900.63
458.809	4780.35
456.939	4807.31
455.07	4859.67
453.201	4835.77
451.332	4588.6
449.461	4567.46
447.59	4573.05
445.719	4741.63
443.848	4476.02
441.975	4374.79
440.104	4348.38
438.23	4422.08
436.355	4339.62
434.482	4325.24
432.607	4193.49
430.732	4269.82
428.857	4330.12
426.982	4209.13
425.105	4140.16
423.23	4077.88
421.354	4194.1
419.475	4194.43
417.598	4092.24
415.719	4064.64
413.84	4078.29
411.961	4106.58
410.08	4133.52
408.201	4093.96
406.32	4034.48
404.439	4089.32
402.557	4161.41
400.676	4093.99
398.793	3973.48
396.91	4070.76
395.027	4059.16
393.143	4194.86
391.258	4106.28
389.373	3987.24
387.488	3979.64
385.604	4185.49
383.717	4090.37
381.83	3972.76
379.943	3827.39
378.055	3965.53
376.168	4083.75
374.279	4061.57
372.391	3852.79
370.5	3828.03
368.611	3886.63
366.721	3930.65
364.83	3871.51
362.939	3877.17
361.047	3827.33
359.154	3822.43
357.262	3907.36
355.369	3773.02
353.477	3712.68
351.582	3715.73
349.688	3819.07
347.793	3873.55
345.896	3826.43
344.002	3779.34
342.105	3856.2
340.209	3802.53
338.311	3796.32
336.414	3803.29
334.516	3731.24
332.617	3792.2
330.717	3796.54
328.818	3758.75
326.918	3784.14
325.018	3813.46
323.117	3857.23
321.215	3857.59
319.312	3725.19
317.41	3624.4
315.508	3714.15
313.604	3813.06
311.701	3687.37
309.797	3573.55
307.891	3748.54
305.986	3624.26
304.08	3619.43
302.174	3597.54
300.268	3653.03
298.361	3572.16
296.453	3577.82
294.545	3641.13
292.637	3539.36
290.727	3524.08
288.818	3589.97
286.908	3636.2
284.998	3584.25
283.086	3576.81
281.176	3579.84
279.264	3717.56
277.352	3714.01
275.438	3655.57
273.525	3576.26
271.611	3708.61
269.697	3676.33
267.781	3602.29
265.867	3579.2
263.951	3443.88
262.035	3594.36
260.119	3623.45
258.201	3471.28
256.283	3470.4
254.365	3482.56
252.447	3596.35
250.527	3487.31
248.607	3354.89
246.688	3446.49
244.768	3403.96
242.846	3418.72
240.926	3454.28
239.002	3354.55
237.08	3355
235.158	3573.86
233.234	3526.16
231.311	3382.33
229.385	3406.15
227.461	3461.13
225.535	3461.55
223.609	3430.81
221.684	3269.02
219.756	3383.65
217.828	3404.84
215.9	3397.48
213.973	3496.44
212.043	3299.83
210.113	3424.68
208.184	3333.12
206.254	3292.12
204.322	3289.98
202.391	3287.84
200.459	3439.7
198.527	3431.05
196.594	3265.9
194.66	3306.44
192.727	3380.57
190.793	3462.41
188.857	3412.42
186.922	3279.78
184.986	3408.07
183.051	3417.52
181.113	3459.23
179.176	3445.43
177.238	3381.32
175.301	3504.26
173.361	3596.19
171.422	3490.84
169.482	3455.13
167.541	3463.25
165.602	3614.34
163.66	3519.4
161.717	3622.76
159.775	3536.87
157.832	3609.29
155.889	3751.13
153.945	3657.56
152	3549.88
150.055	3614.51
148.109	3802.46
146.164	3680.7
144.217	3718.27
142.27	3613.28
140.322	3706.04
138.375	3699.93
136.426	3688.69
134.477	3750.57
132.527	3652.12
130.578	3774.23
128.627	3915.5
126.676	3850.4
124.725	3909.59
122.771	3946.97
120.82	4059.87
118.867	4101.03
116.912	3986.06
114.959	3972.2
113.004	4029.98
111.049	4173.39
109.094	4062.35
107.137	4100.88
105.18	4217.32
103.223	4248.13
101.266	4255.93
99.3066	4196.07
97.3477	4312.36
95.3887	4437.51
93.4277	4493.72
91.4668	4367.55
89.5059	4279.68
87.5449	4439.12
85.582	4623.96
83.6211	4720.79
81.6562	4617.64
79.6934	4632.95
77.7285	4758.98
75.7637	4746.24
73.7988	4780.57
71.834	4743.67
69.8672	4870.8
67.9004	4924.13
65.9336	4962.19
63.9648	4730.9
61.9961	4347.33
60.0273	3863.67
58.0586	2989.3
56.0879	2010.09
54.1172	1319.4
52.1465	882.74
50.1738	542.686
48.2031	320.706
46.2305	178.684
44.2559	152.03
42.2832	75.9941
40.3086	44.3177