File: PeakFitting/xrdData/jacobson_raman/C3_02126_532nm_5sec_5per_50x.txt
#Wave		#Intensity
1818.91	1925.51
1817.34	1938.28
1815.78	2046.46
1814.21	1985.42
1812.64	1930.79
1811.07	1971.9
1809.51	1965.14
1807.94	1979.12
1806.37	2058.46
1804.8	1968.79
1803.23	1992.32
1801.67	1969.63
1800.1	2020.23
1798.53	2072.41
1796.96	2035.38
1795.39	1952.18
1793.82	1996.38
1792.25	1978.48
1790.68	2000.38
1789.1	2030.22
1787.53	1931.2
1785.96	1989.67
1784.39	1955.89
1782.82	2004.8
1781.24	2020.3
1779.67	2046.92
1778.1	2059.23
1776.52	1957.16
1774.95	1994.9
1773.38	1916.69
1771.8	2052.86
1770.22	2039.76
1768.65	2021.9
1767.07	1989.76
1765.5	2057.59
1763.92	2058.77
1762.35	2074.22
1760.77	2013.56
1759.19	2035.36
1757.62	2038.13
1756.04	2009.2
1754.46	2127.62
1752.88	2114.53
1751.3	2091.94
1749.72	1964.86
1748.14	2021.46
1746.56	2052.71
1744.98	2063.37
1743.4	2093.02
1741.82	2019.85
1740.24	2038.42
1738.66	1982.67
1737.08	1952.24
1735.5	2000.85
1733.92	2079.45
1732.33	2028.48
1730.75	1993.33
1729.17	2067.15
1727.58	2062
1726	2146.82
1724.42	2054.85
1722.83	2060.75
1721.25	2022.47
1719.66	2031.53
1718.08	2067.39
1716.49	2093.78
1714.9	2094.93
1713.32	2086.62
1711.73	2037.36
1710.14	2073.18
1708.56	2154.66
1706.97	2141.62
1705.38	2092.38
1703.79	2016.4
1702.21	2014.42
1700.62	2127.3
1699.03	2082.82
1697.44	2006.9
1695.85	2078.82
1694.26	2040.67
1692.67	2121.98
1691.08	2143.55
1689.49	2158.83
1687.89	2108.12
1686.3	2126.53
1684.71	2055.44
1683.12	2133.51
1681.53	2183.3
1679.93	2131.06
1678.34	2097.68
1676.74	2147.44
1675.15	2107.79
1673.56	2124.61
1671.96	2141.41
1670.37	2169.18
1668.77	2123.29
1667.18	2108.76
1665.58	2189.77
1663.98	2190.88
1662.39	2206.09
1660.79	2193.11
1659.19	2148.83
1657.59	2095.19
1656	2158.89
1654.4	2186.6
1652.8	2259.64
1651.2	2134.1
1649.6	2102.39
1648	2103.52
1646.4	2192.14
1644.8	2210.43
1643.2	2225.59
1641.6	2148.61
1640	2221.54
1638.4	2185.17
1636.79	2303.32
1635.19	2257.59
1633.59	2307.03
1631.98	2208.3
1630.38	2182.89
1628.78	2126.31
1627.17	2202.24
1625.57	2215.8
1623.96	2193.52
1622.36	2185.27
1620.75	2175.47
1619.15	2215.49
1617.54	2193.24
1615.94	2290.82
1614.33	2221.88
1612.72	2170.07
1611.12	2219.38
1609.51	2259.35
1607.9	2192.02
1606.29	2227.31
1604.68	2225.28
1603.07	2238.79
1601.46	2320.65
1599.85	2226.98
1598.24	2170.61
1596.63	2153.07
1595.02	2168.14
1593.41	2256.12
1591.8	2283.57
1590.19	2213.29
1588.58	2191.11
1586.96	2210.8
1585.35	2292.48
1583.74	2243.95
1582.12	2296.15
1580.51	2287.92
1578.89	2242.52
1577.28	2138.3
1575.67	2315.87
1574.05	2217.87
1572.44	2262.27
1570.82	2292.73
1569.2	2244.29
1567.59	2251.55
1565.97	2251.06
1564.35	2247.49
1562.73	2260.92
1561.12	2302.15
1559.5	2212.06
1557.88	2268.73
1556.26	2170.97
1554.64	2272.39
1553.02	2241.04
1551.4	2222.04
1549.78	2235.45
1548.16	2315.17
1546.54	2286.92
1544.92	2324.97
1543.29	2287.48
1541.67	2274.66
1540.05	2240.27
1538.43	2272.14
1536.8	2233.14
1535.18	2234.2
1533.55	2246.04
1531.93	2230.16
1530.31	2305.08
1528.68	2364.58
1527.06	2277.94
1525.43	2208.24
1523.8	2236.98
1522.18	2245.72
1520.55	2365.1
1518.92	2341.54
1517.3	2224.29
1515.67	2269.88
1514.04	2309.31
1512.41	2298.07
1510.78	2306.78
1509.15	2246.43
1507.52	2219.87
1505.89	2214.78
1504.26	2269.51
1502.63	2331.87
1501	2253.19
1499.37	2278.76
1497.74	2189.4
1496.11	2236.41
1494.47	2366.09
1492.84	2324.24
1491.21	2254.85
1489.57	2208.44
1487.94	2189.6
1486.31	2244.2
1484.67	2356.89
1483.04	2249.33
1481.4	2192.28
1479.77	2268.22
1478.13	2194.38
1476.49	2232.09
1474.86	2285.07
1473.22	2241.81
1471.58	2215.36
1469.95	2196.56
1468.31	2244.92
1466.67	2226.11
1465.03	2283.59
1463.39	2205.31
1461.75	2242.95
1460.11	2240.93
1458.47	2295.31
1456.83	2281.09
1455.19	2195.28
1453.55	2322.74
1451.91	2236.96
1450.26	2218.2
1448.62	2242.06
1446.98	2195.92
1445.34	2285.2
1443.69	2208.64
1442.05	2268.99
1440.4	2390.12
1438.76	2277.11
1437.11	2193.02
1435.47	2213.81
1433.82	2263.46
1432.18	2307
1430.53	2276.12
1428.88	2283.21
1427.24	2246.28
1425.59	2267.03
1423.94	2216.47
1422.29	2306.99
1420.64	2288.28
1419	2269.58
1417.35	2276.66
1415.7	2276.16
1414.05	2255.96
1412.4	2325.14
1410.74	2238.3
1409.09	2254.47
1407.44	2285.76
1405.79	2312.49
1404.14	2265.07
1402.48	2311.47
1400.83	2297.35
1399.18	2268.11
1397.53	2257.02
1395.87	2362.32
1394.22	2289.27
1392.56	2311.42
1390.91	2319.97
1389.25	2320.97
1387.6	2334.04
1385.94	2356.17
1384.28	2340.55
1382.62	2238.95
1380.97	2160.02
1379.31	2316.37
1377.65	2293.24
1375.99	2279.17
1374.33	2280.17
1372.68	2177.21
1371.02	2238.49
1369.36	2358.47
1367.7	2321.81
1366.04	2316.78
1364.37	2269.61
1362.71	2339.82
1361.05	2295.68
1359.39	2362.85
1357.72	2276.61
1356.06	2271.59
1354.4	2260.57
1352.74	2297.63
1351.07	2303.13
1349.41	2329.65
1347.74	2257.05
1346.08	2268.56
1344.41	2299.58
1342.75	2378.6
1341.08	2391.57
1339.41	2287.54
1337.75	2257.04
1336.08	2211.55
1334.41	2404.43
1332.74	2304.98
1331.07	2346.42
1329.41	2302.46
1327.74	2225.56
1326.07	2416.72
1324.4	2344.33
1322.73	2340.81
1321.05	2353.76
1319.38	2208.12
1317.71	2385.61
1316.04	2464.33
1314.37	2427.9
1312.7	2294.33
1311.02	2352.1
1309.35	2303.76
1307.68	2295.78
1306	2410.25
1304.33	2351.48
1302.65	2292.74
1300.98	2357.89
1299.3	2329.02
1297.62	2388.16
1295.95	2412.98
1294.27	2369.2
1292.6	2332.9
1290.92	2296.61
1289.24	2404.86
1287.56	2370.06
1285.88	2362.08
1284.21	2327.31
1282.53	2381.86
1280.85	2428.96
1279.17	2380.8
1277.48	2404.07
1275.8	2358.91
1274.12	2432.73
1272.44	2411.37
1270.76	2406.37
1269.08	2374.62
1267.39	2417.17
1265.71	2446.34
1264.03	2468.06
1262.34	2411.09
1260.66	2450.63
1258.97	2362.52
1257.29	2379.8
1255.6	2370.36
1253.92	2343.14
1252.23	2428.6
1250.54	2358.39
1248.86	2363.79
1247.17	2389.92
1245.48	2487.16
1243.79	2499.93
1242.11	2410.52
1240.42	2451.43
1238.73	2447.92
1237.04	2456.25
1235.35	2556.29
1233.66	2503.95
1231.97	2391.01
1230.28	2449.6
1228.59	2491.91
1226.89	2619.91
1225.2	2629.66
1223.51	2592.15
1221.82	2517.73
1220.12	2511.26
1218.43	2556.45
1216.73	2710.82
1215.04	2562.67
1213.35	2584.22
1211.65	2654.42
1209.96	2563.89
1208.26	2672.39
1206.56	2676.21
1204.87	2575.42
1203.17	2514.44
1201.47	2686.18
1199.77	2716.5
1198.07	2710
1196.38	2653.46
1194.68	2752.91
1192.98	2653.74
1191.28	2719.32
1189.58	2768.7
1187.88	2781.3
1186.18	2689.55
1184.47	2821.19
1182.77	2888.13
1181.07	2843.42
1179.37	2748.8
1177.66	2755.52
1175.96	2803.33
1174.26	2836.45
1172.55	2890.09
1170.85	2845.44
1169.14	2840.4
1167.44	2779.65
1165.73	2897.74
1164.03	2891.23
1162.32	2886.18
1160.61	2860.63
1158.91	2864.38
1157.2	2909.11
1155.49	2977.25
1153.78	3055.61
1152.07	2939.33
1150.37	2833.35
1148.66	2943.85
1146.95	2975.35
1145.24	3059.46
1143.53	3019.31
1141.81	2974.8
1140.1	3044.24
1138.39	3109.28
1136.68	3143.62
1134.96	3116.63
1133.25	3057.55
1131.54	3185.26
1129.83	3107.22
1128.11	3151.73
1126.4	3155.39
1124.68	3151.77
1122.97	3193.32
1121.25	3223.2
1119.54	3210.81
1117.82	3230.48
1116.1	3269.06
1114.38	3159.14
1112.67	3296.7
1110.95	3314.87
1109.23	3312.66
1107.51	3358.46
1105.79	3206.46
1104.07	3316.23
1102.35	3385.25
1100.63	3214.46
1098.91	3327.05
1097.19	3372.78
1095.47	3341.52
1093.75	3364
1092.03	3475
1090.3	3384.24
1088.58	3292.07
1086.86	3226.05
1085.13	3383.4
1083.41	3384.08
1081.68	3310.83
1079.96	3328.92
1078.23	3400.62
1076.51	3389.71
1074.78	3391.84
1073.05	3383.83
1071.33	3248.43
1069.6	3301.25
1067.87	3439.41
1066.14	3306.98
1064.41	3285.99
1062.69	3363.33
1060.96	3258.48
1059.23	3337.23
1057.5	3327.81
1055.77	3393.51
1054.04	3274.3
1052.3	3335.65
1050.57	3275.71
1048.84	3244.65
1047.11	3292.98
1045.38	3299.45
1043.64	3251.1
1041.91	3323.91
1040.17	3373.61
1038.44	3279.16
1036.71	3363.44
1034.97	3207.08
1033.23	3212.11
1031.5	3322.27
1029.76	3239.45
1028.03	3302.05
1026.29	3174.66
1024.55	3212.79
1022.81	3255.21
1021.07	3346.51
1019.33	3161.72
1017.6	3135.13
1015.86	3166.03
1014.12	3316.18
1012.38	3222.05
1010.63	3204.09
1008.89	3174.65
1007.15	3227.04
1005.41	3140.2
1003.67	3251.4
1001.93	3230.58
1000.18	3205.47
998.439	3243.45
996.695	3140.94
994.951	3211.88
993.205	3166.74
991.461	3155.99
989.715	3100.85
987.969	3115.89
986.223	3176.75
984.477	3160.28
982.729	3189.61
980.982	3110.2
979.234	3135.24
977.486	3135.96
975.736	3093.79
973.988	3094.52
972.238	3066.66
970.488	3061.68
968.738	3133.83
966.988	3185.96
965.236	3028.18
963.484	3061.75
961.734	2966.87
959.98	3037.53
958.229	3101.03
956.475	2939.18
954.723	3006.95
952.969	3088.94
951.215	3059.74
949.459	3036.24
947.705	2940.11
945.949	2899.57
944.193	2894.64
942.438	3039.18
940.68	2973.02
938.924	3010.76
937.166	2923.3
935.408	2978.11
933.65	3044.26
931.891	3036.46
930.133	2959.02
928.373	2931.35
926.613	2954.83
924.854	3013.81
923.092	3081.28
921.33	2985.47
919.57	3045.82
917.809	2928.77
916.045	2956.48
914.283	2944.46
912.52	2999.09
910.756	2964.38
908.992	2922.61
907.229	2910.6
905.463	3041.7
903.699	3004.18
901.934	2846.31
900.168	2963.17
898.4	2989.39
896.635	3038.24
894.867	2915.87
893.1	2874.19
891.332	3054.55
889.564	2956.3
887.795	3084.25
886.025	2947.88
884.256	2933.08
882.486	2922.53
880.717	3006.6
878.945	3008.73
877.174	2998.17
875.402	2893.05
873.631	2882.52
871.859	3025.74
870.086	2936.2
868.312	2876.32
866.539	2906.67
864.766	2966.61
862.992	2926.48
861.217	2993.43
859.441	2963.18
857.666	2862.53
855.891	2826.68
854.113	2992.11
852.338	2891.53
850.561	2776.92
848.783	2870.52
847.004	2815.03
845.227	2933.87
843.447	2954.29
841.668	2838.39
839.889	2857.41
838.109	2859.57
836.328	2916.49
834.547	2882.13
832.766	2861.82
830.984	2820.47
829.203	2885.77
827.42	2928.59
825.637	3028.88
823.854	2862.76
822.07	2881.73
820.287	2802.6
818.502	2895.82
816.717	3040.83
814.932	2842.69
813.146	2937.24
811.359	2862.39
809.574	2888.32
807.787	2959.01
806	2937.35
804.211	2904.52
802.424	2955.58
800.635	2982.86
798.846	2987.77
797.057	2896.27
795.268	2891.42
793.477	2918.69
791.686	2902.66
789.895	2955.04
788.104	2906.92
786.312	2842.07
784.52	2900.01
782.727	2955.13
780.934	2884.74
779.141	2881.29
777.346	2944.74
775.553	2912.02
773.758	2942
771.963	2926
770.166	2926.72
768.371	2905.17
766.574	2826.57
764.777	2966.45
762.98	2897.61
761.184	2924.76
759.385	2853.18
757.586	2885.89
755.787	2999.19
753.988	2972.1
752.189	2946.42
750.389	2902.69
748.588	2946.45
746.787	3026.29
744.986	2904.85
743.184	2963.85
741.383	2960.4
739.58	2968.04
737.777	3002.02
735.973	2944.49
734.17	3035.29
732.365	2998.57
730.561	3058.83
728.756	3067.83
726.951	3074.04
725.145	2957.05
723.338	3061.56
721.531	3177.09
719.725	3078.14
717.916	3171.48
716.109	3123.74
714.301	3100.9
712.492	3224.58
710.684	3185.14
708.873	3221.71
707.062	3117.38
705.252	3176.04
703.441	3213.97
701.631	3242.21
699.818	3165.57
698.006	3145.52
696.193	3239.97
694.381	3257.15
692.568	3260.53
690.754	3297
688.939	3184.62
687.125	3320.28
685.311	3399.4
683.494	3406.88
681.68	3334.5
679.863	3328.22
678.047	3388.01
676.229	3443.63
674.412	3440.09
672.594	3311.4
670.775	3325.76
668.957	3418.46
667.137	3506.99
665.318	3453.97
663.498	3416.09
661.678	3394.7
659.855	3591.62
658.035	3656.67
656.213	3688.76
654.391	3601.47
652.568	3602.01
650.744	3675.23
648.922	3864.96
647.098	3724.25
645.273	3815.2
643.449	3867.75
641.623	3966.85
639.799	3986.47
637.973	3925.3
636.146	3924.39
634.318	4094.54
632.492	4220.84
630.664	4318.34
628.836	4318.71
627.008	4268.49
625.178	4393.25
623.35	4601.32
621.52	4695.89
619.689	4655.19
617.859	4696.44
616.027	4812.76
614.195	5072.36
612.363	5139.42
610.531	5037.26
608.699	5173.85
606.865	5285.84
605.031	5378.69
603.197	5648.69
601.363	5594.23
599.529	5750.97
597.693	5913.09
595.857	6250.8
594.021	6201.69
592.186	6147.16
590.348	6328.09
588.51	6627.29
586.672	6818.9
584.834	6893.46
582.996	6942.16
581.156	7102.29
579.316	7354.76
577.477	7619.34
575.637	7712.64
573.795	7592.69
571.953	7953.42
570.111	8100.88
568.27	8221.12
566.428	8174.42
564.584	8213.2
562.74	8573.36
560.896	8655.41
559.053	8746.91
557.207	8582.24
555.361	8904.04
553.516	9037.4
551.67	9094.87
549.824	9131.99
547.977	8913.28
546.129	8968.02
544.281	9367.74
542.434	9403.41
540.584	9030.67
538.736	8821.69
536.887	8989.93
535.035	9162.14
533.186	9014.07
531.334	8785.03
529.482	8623.61
527.631	8675.59
525.779	8897.6
523.926	8697.14
522.074	8321.38
520.221	8304.58
518.365	8165.08
516.512	8351.89
514.656	8107.31
512.803	7814.33
510.945	7804.4
509.09	7696.15
507.232	7781.86
505.377	7560.58
503.52	7222.31
501.66	7334.97
499.803	7411.27
497.943	7176.83
496.084	6937.12
494.225	6881.71
492.365	6808.84
490.504	6926.82
488.645	6640.38
486.781	6407.79
484.92	6395.53
483.059	6371.19
481.195	6450.2
479.332	6207.15
477.469	6000.42
475.604	5966.81
473.74	6131.65
471.875	6130.19
470.01	5961.21
468.145	5782.93
466.277	5765.47
464.41	5955.61
462.543	5768.08
460.676	5710.48
458.809	5256.78
456.939	5523.12
455.07	5479
453.201	5452.28
451.332	5257.11
449.461	5088.77
447.59	5249.25
445.719	5150.46
443.848	4980.93
441.975	4982.4
440.104	4983.88
438.23	5026.73
436.355	5004.18
434.482	4872.23
432.607	4737.68
430.732	4716.54
428.857	4780.73
426.982	4664.96
425.105	4613.2
423.23	4602.77
421.354	4776.14
419.475	4635.17
417.598	4660.68
415.719	4597.01
413.84	4586.58
411.961	4621.4
410.08	4676.14
408.201	4482.21
406.32	4487.78
404.439	4533.21
402.557	4611.83
400.676	4561.57
398.793	4448.91
396.91	4354.89
395.027	4509.15
393.143	4547.86
391.258	4493.69
389.373	4253.85
387.488	4283.31
385.604	4376.41
383.717	4506.56
381.83	4298.75
379.943	4177.14
378.055	4259.57
376.168	4392.28
374.279	4298.54
372.391	4183.67
370.5	4105.9
368.611	4237.19
366.721	4205.74
364.83	4145.21
362.939	4086.04
361.047	4017.64
359.154	4076.11
357.262	4149.09
355.369	4078.08
353.477	3921.29
351.582	3934.85
349.688	4057.93
347.793	3976.46
345.896	3926.68
344.002	4066.81
342.105	3965.62
340.209	4072.72
338.311	3936
336.414	3895.51
334.516	3898.5
332.617	4009.47
330.717	3976.88
328.818	3886.41
326.918	3895.98
325.018	3860.81
323.117	3937.45
321.215	3950.94
319.312	3780.4
317.41	3750.56
315.508	3823.2
313.604	3789.42
311.701	3703.12
309.797	3576.17
307.891	3759.04
305.986	3718.74
304.08	3721.75
302.174	3711.65
300.268	3626.81
298.361	3597.07
296.453	3600.1
294.545	3592.66
292.637	3573.42
290.727	3537.17
288.818	3667.22
286.908	3757.93
284.998	3616.97
283.086	3614.75
281.176	3518.37
279.264	3703.17
277.352	3619.89
275.438	3553.63
273.525	3580.18
271.611	3562.3
269.697	3612.34
267.781	3540.93
265.867	3593.56
263.951	3540.45
262.035	3576.09
260.119	3609.11
258.201	3527.35
256.283	3505.6
254.365	3444.76
252.447	3528.59
250.527	3496.43
248.607	3436.94
246.688	3455.6
244.768	3526.32
242.846	3455.16
240.926	3455.58
239.002	3450.8
237.08	3436.93
235.158	3615.46
233.234	3526.16
231.311	3470.69
229.385	3451.62
227.461	3589.71
225.535	3526.47
223.609	3481.44
221.684	3459.78
219.756	3479.66
217.828	3487.85
215.9	3505.11
213.973	3362.91
212.043	3404.82
210.113	3479.1
208.184	3453.59
206.254	3442.35
204.322	3379.32
202.391	3453.52
200.459	3478.52
198.527	3450.46
196.594	3415.94
194.66	3466.78
192.727	3463.3
190.793	3479.21
188.857	3424.05
186.922	3417.99
184.986	3449.4
183.051	3523.39
181.113	3590.89
179.176	3582.21
177.238	3558.06
175.301	3655.16
173.361	3721.26
171.422	3716.43
169.482	3626.54
167.541	3637.19
165.602	3803.69
163.66	3824.59
161.717	3742.49
159.775	3747.95
157.832	3690.35
155.889	3821.89
153.945	3818.31
152	3749.17
150.055	3775.18
148.109	3837.16
146.164	3840.01
144.217	3851.84
142.27	3839.27
140.322	3874.21
138.375	3878.32
136.426	3917.07
134.477	3874.99
132.527	3888.08
130.578	3961.41
128.627	4076.99
126.676	3996.47
124.725	3958.26
122.771	4092.96
120.82	4159.74
118.867	4226.47
116.912	4006.53
114.959	4112.93
113.004	4230.77
111.049	4271.84
109.094	4209.35
107.137	4186.5
105.18	4279.92
103.223	4369.47
101.266	4414.27
99.3066	4407.98
97.3477	4501.24
95.3887	4543.41
93.4277	4611.07
91.4668	4510.37
89.5059	4442.87
87.5449	4442.95
85.582	4673.65
83.6211	4765.38
81.6562	4723.34
79.6934	4802.28
77.7285	4873.53
75.7637	4980.37
73.7988	4882.34
71.834	4839.05
69.8672	5010.65
67.9004	5169.45
65.9336	5001.58
63.9648	4814.74
61.9961	4493.39
60.0273	3870.01
58.0586	2998.19
56.0879	2131.92
54.1172	1365.07
52.1465	861.179
50.1738	550.294
48.2031	344.79
46.2305	233.176
44.2559	168.5
42.2832	84.8601
40.3086	72.1746