File: PeakFitting/xrdData/jacobson_raman/C3_02158_532nm_5sec_5per_50x.txt
#Wave		#Intensity
1818.91	1698.79
1817.34	1761.06
1815.78	1722.41
1814.21	1725.27
1812.64	1702.6
1811.07	1640.06
1809.51	1673.24
1807.94	1741.49
1806.37	1774.64
1804.8	1755.17
1803.23	1740.49
1801.67	1657.29
1800.1	1647.41
1798.53	1766.56
1796.96	1761.44
1795.39	1759.51
1793.82	1671.61
1792.25	1736.55
1790.68	1712.34
1789.1	1743.83
1787.53	1775.3
1785.96	1687.48
1784.39	1701.47
1782.82	1694.78
1781.24	1697.62
1779.67	1757.68
1778.1	1763.69
1776.52	1723.63
1774.95	1675.65
1773.38	1724.55
1771.8	1749.61
1770.22	1796.89
1768.65	1753.69
1767.07	1700.98
1765.5	1754.58
1763.92	1825.61
1762.35	1822.08
1760.77	1721.83
1759.19	1751.61
1757.62	1717.98
1756.04	1717.64
1754.46	1821.86
1752.88	1819.92
1751.3	1751.46
1749.72	1695.7
1748.14	1671.62
1746.56	1718.77
1744.98	1788.05
1743.4	1779.78
1741.82	1812.64
1740.24	1768
1738.66	1721.8
1737.08	1798.91
1735.5	1766.94
1733.92	1813.99
1732.33	1800.99
1730.75	1696.38
1729.17	1786.05
1727.58	1801.48
1726	1750.61
1724.42	1789.71
1722.83	1771.99
1721.25	1740.09
1719.66	1725.54
1718.08	1818.23
1716.49	1784.75
1714.9	1790.7
1713.32	1813.98
1711.73	1791.55
1710.14	1788.04
1708.56	1858.55
1706.97	1829.83
1705.38	1788.52
1703.79	1766.12
1702.21	1795.66
1700.62	1774.84
1699.03	1898.76
1697.44	1797.71
1695.85	1858.67
1694.26	1800.12
1692.67	1740.03
1691.08	1782.1
1689.49	1904.29
1687.89	1839.5
1686.3	1779.44
1684.71	1780.64
1683.12	1808.54
1681.53	1867.81
1679.93	1890.97
1678.34	1813.7
1676.74	1839.99
1675.15	1808.25
1673.56	1894.12
1671.96	1856.1
1670.37	1861.99
1668.77	1786.39
1667.18	1840.85
1665.58	1845.17
1663.98	1863.58
1662.39	1852.24
1660.79	1820.55
1659.19	1882.77
1657.59	1830.75
1656	1839.75
1654.4	1962.93
1652.8	1860.88
1651.2	1868.31
1649.6	1839.79
1648	1920.67
1646.4	1989.02
1644.8	1905.81
1643.2	1866.37
1641.6	1847.24
1640	1887.45
1638.4	1888.61
1636.79	1905.38
1635.19	1943.99
1633.59	1849.99
1631.98	1816.86
1630.38	1928.74
1628.78	2021.87
1627.17	1941.96
1625.57	1972.71
1623.96	1936.47
1622.36	1808.34
1620.75	1909.18
1619.15	1947.7
1617.54	1973.76
1615.94	1883.08
1614.33	1901.35
1612.72	1921.18
1611.12	1972.1
1609.51	1968.57
1607.9	1910.63
1606.29	1885.36
1604.68	1860.1
1603.07	1914.08
1601.46	1946.3
1599.85	1961.42
1598.24	1951.69
1596.63	1955.93
1595.02	1879.47
1593.41	1938.03
1591.8	2004.33
1590.19	1899.99
1588.58	1939.9
1586.96	1911.58
1585.35	1939.08
1583.74	1952.61
1582.12	1983.18
1580.51	1889.82
1578.89	1909.55
1577.28	1926.18
1575.67	1955.18
1574.05	1897.5
1572.44	1952.8
1570.82	1919.89
1569.2	1948.87
1567.59	1900.51
1565.97	1938.76
1564.35	2029.54
1562.73	1910.11
1561.12	1906.61
1559.5	1883.04
1557.88	1910.43
1556.26	1967.15
1554.64	1929.68
1553.02	1923.09
1551.4	1944.28
1549.78	1971.64
1548.16	1988.18
1546.54	1993.92
1544.92	1919.49
1543.29	1914.45
1541.67	1969.52
1540.05	1938.28
1538.43	1939.4
1536.8	1938.98
1535.18	1940.11
1533.55	1916.6
1531.93	1962.36
1530.31	1998.86
1528.68	2003.05
1527.06	1944.17
1525.43	1945.29
1523.8	1955.63
1522.18	1969.04
1520.55	1939.41
1518.92	1958.97
1517.3	1924.75
1515.67	1875.19
1514.04	1948.48
1512.41	1997.18
1510.78	2024.38
1509.15	1947.22
1507.52	1903.84
1505.89	1958.64
1504.26	1889.21
1502.63	1933.26
1501	1935.91
1499.37	1943.15
1497.74	1919.74
1496.11	1884.1
1494.47	1987.82
1492.84	1947.58
1491.21	1901.24
1489.57	1839.6
1487.94	1866.74
1486.31	2034.61
1484.67	1959.23
1483.04	1893.05
1481.4	1829.96
1479.77	1863.18
1478.13	1900.98
1476.49	1949.45
1474.86	1927.64
1473.22	1884.46
1471.58	1841.3
1469.95	1892.8
1468.31	1933.59
1466.67	1959.1
1465.03	1919.01
1463.39	1874.36
1461.75	1884.63
1460.11	1987.88
1458.47	1953.91
1456.83	1921.48
1455.19	1887.55
1453.55	1809.45
1451.91	1868.44
1450.26	1997.44
1448.62	1910.24
1446.98	1925.04
1445.34	1917.01
1443.69	1829.89
1442.05	1931.38
1440.4	1956.8
1438.76	1916.85
1437.11	1873.87
1435.47	1849.15
1433.82	1914.06
1432.18	1978.95
1430.53	1963.33
1428.88	1976.56
1427.24	1892.65
1425.59	1890.71
1423.94	1949.46
1422.29	1944.48
1420.64	1903.11
1419	1908.75
1417.35	1806.78
1415.7	1957.92
1414.05	1981.73
1412.4	2041.88
1410.74	1941.48
1409.09	1836.58
1407.44	1869.48
1405.79	1940.19
1404.14	1933.71
1402.48	1948.41
1400.83	1911.68
1399.18	1967.21
1397.53	1969.79
1395.87	1989.01
1394.22	1885.81
1392.56	1906.55
1390.91	1877.43
1389.25	1928.35
1387.6	1965.67
1385.94	1965.23
1384.28	1964.8
1382.62	1900.99
1380.97	1867.39
1379.31	1857.93
1377.65	1979.64
1375.99	1894.79
1374.33	1954.65
1372.68	1862.3
1371.02	1884.49
1369.36	1914.19
1367.7	1903.22
1366.04	1895.27
1364.37	1905.39
1362.71	1910.98
1361.05	1942.15
1359.39	1946.23
1357.72	1968.35
1356.06	1838.62
1354.4	1923.89
1352.74	1896.41
1351.07	1900.5
1349.41	1957.15
1347.74	1893.64
1346.08	1842.17
1344.41	1889.8
1342.75	1934.4
1341.08	2043.49
1339.41	1852.53
1337.75	1906.11
1336.08	1910.18
1334.41	1968.22
1332.74	1922.82
1331.07	1926.88
1329.41	1829.08
1327.74	1929.02
1326.07	1973.51
1324.4	2019.48
1322.73	1932.22
1321.05	1918.32
1319.38	1988.2
1317.71	1974.3
1316.04	1914.04
1314.37	2070.59
1312.7	2011.83
1311.02	1951.61
1309.35	1958.65
1307.68	2026.92
1306	2050.36
1304.33	1925.98
1302.65	1934.5
1300.98	2007.19
1299.3	1993.32
1297.62	1997.35
1295.95	2050.59
1294.27	1938.3
1292.6	1906.56
1290.92	2022.38
1289.24	1989.15
1287.56	2018.5
1285.88	1906.35
1284.21	1882.09
1282.53	1947.17
1280.85	2000.32
1279.17	2062.37
1277.48	1999.42
1275.8	1948.4
1274.12	1997.04
1272.44	1977.26
1270.76	2132.88
1269.08	1974.89
1267.39	1950.68
1265.71	2021.53
1264.03	1988.41
1262.34	2013.2
1260.66	2103.3
1258.97	1967.78
1257.29	1942.12
1255.6	2005.46
1253.92	2018.36
1252.23	2023.84
1250.54	2002.63
1248.86	1975.5
1247.17	1973.58
1245.48	2019.05
1243.79	2100.06
1242.11	2053.68
1240.42	2039.9
1238.73	2014.28
1237.04	2041.94
1235.35	2150.95
1233.66	2046.94
1231.97	2086.4
1230.28	2022.36
1228.59	2007.13
1226.89	2058.4
1225.2	2097.82
1223.51	2073.72
1221.82	2055.53
1220.12	2133.31
1218.43	2216.97
1216.73	2164.82
1215.04	2198.26
1213.35	2104.84
1211.65	2210.54
1209.96	2161.39
1208.26	2205.13
1206.56	2306.31
1204.87	2171.72
1203.17	2191.85
1201.47	2276.77
1199.77	2264.48
1198.07	2265.44
1196.38	2188.41
1194.68	2277.67
1192.98	2231.55
1191.28	2388.41
1189.58	2307
1187.88	2332.94
1186.18	2303.02
1184.47	2339.24
1182.77	2338.71
1181.07	2355.81
1179.37	2389.05
1177.66	2387.04
1175.96	2395.31
1174.26	2418.25
1172.55	2499.86
1170.85	2471.42
1169.14	2438.61
1167.44	2344.23
1165.73	2491.74
1164.03	2457.47
1162.32	2528.7
1160.61	2451.97
1158.91	2414.8
1157.2	2488.93
1155.49	2504.46
1153.78	2546.34
1152.07	2569.17
1150.37	2502.77
1148.66	2582.64
1146.95	2527.96
1145.24	2670.64
1143.53	2580.89
1141.81	2545.24
1140.1	2585.56
1138.39	2690.13
1136.68	2690.98
1134.96	2633.44
1133.25	2591.98
1131.54	2639.55
1129.83	2657.92
1128.11	2733.15
1126.4	2690.25
1124.68	2714.43
1122.97	2678.83
1121.25	2727.77
1119.54	2769.4
1117.82	2837.23
1116.1	2720.09
1114.38	2677.26
1112.67	2765.44
1110.95	2823.02
1109.23	2866.03
1107.51	2709.75
1105.79	2821.11
1104.07	2890.25
1102.35	2889.6
1100.63	2890.4
1098.91	2809.84
1097.19	2884.73
1095.47	2798.4
1093.75	2895.04
1092.03	2843.58
1090.3	2850.19
1088.58	2803.12
1086.86	2796.68
1085.13	2761.24
1083.41	2859.21
1081.68	2955.69
1079.96	2798.5
1078.23	2852.92
1076.51	2810.27
1074.78	2913.91
1073.05	2849.54
1071.33	2802.57
1069.6	2731.02
1067.87	2799.85
1066.14	2833.94
1064.41	2869.45
1062.69	2737.22
1060.96	2740.94
1059.23	2707.07
1057.5	2764.26
1055.77	2805.53
1054.04	2745.68
1052.3	2743.61
1050.57	2709.78
1048.84	2775.56
1047.11	2854.3
1045.38	2732.47
1043.64	2613.57
1041.91	2682.2
1040.17	2752.24
1038.44	2699.72
1036.71	2713.52
1034.97	2671.12
1033.23	2628.75
1031.5	2599.35
1029.76	2673.63
1028.03	2638.47
1026.29	2603.34
1024.55	2607.06
1022.81	2605.03
1021.07	2674.91
1019.33	2618.23
1017.6	2541.45
1015.86	2671.65
1014.12	2616.45
1012.38	2627.35
1010.63	2586.54
1008.89	2498.36
1007.15	2509.28
1005.41	2561.81
1003.67	2538.28
1001.93	2559.22
1000.18	2507.01
998.439	2492.1
996.695	2534.54
994.951	2506.73
993.205	2484.67
991.461	2464.05
989.715	2406.2
987.969	2448.61
986.223	2564.02
984.477	2506.18
982.729	2468.41
980.982	2463.56
979.234	2488.74
977.486	2462.44
975.736	2424.71
973.988	2398.43
972.238	2409.32
970.488	2344.48
968.738	2491.07
966.988	2449.09
965.236	2385.71
963.484	2329.5
961.734	2324.69
959.98	2281.36
958.229	2392.1
956.475	2294.59
954.723	2241.31
952.969	2275.01
951.215	2294.45
949.459	2377.99
947.705	2297.68
945.949	2198.89
944.193	2279.55
942.438	2301.8
940.68	2221.58
938.924	2313.56
937.166	2317.31
935.408	2227.18
933.65	2319.1
931.891	2294.4
930.133	2219.98
928.373	2328.88
926.613	2308.46
924.854	2312.2
923.092	2284.69
921.33	2248.68
919.57	2246.75
917.809	2278.88
916.045	2325.18
914.283	2242.38
912.52	2261.73
910.756	2213.01
908.992	2186.99
907.229	2302.69
905.463	2278.09
903.699	2222.33
901.934	2227.49
900.168	2193
898.4	2259.03
896.635	2255.68
894.867	2197.16
893.1	2206.56
891.332	2196.16
889.564	2212.63
887.795	2195.16
886.025	2196.08
884.256	2204.05
882.486	2120.21
880.717	2205.87
878.945	2281.61
877.174	2196.4
875.402	2138.04
873.631	2157.3
871.859	2162.45
870.086	2183.11
868.312	2162.88
866.539	2108.82
864.766	2113.98
862.992	2136.04
861.217	2135.55
859.441	2130.84
857.666	2141.62
855.891	2122.83
854.113	2147.68
852.338	2107.79
850.561	2074.95
848.783	2088.54
847.004	2041.67
845.227	2160.69
843.447	2174.25
841.668	2088.04
839.889	2024.35
838.109	2063.22
836.328	2121.72
834.547	2163.35
832.766	2146.02
830.984	2075.36
829.203	2086.11
827.42	2155.77
825.637	2121.62
823.854	2137.96
822.07	2081.41
820.287	2062.71
818.502	2161.71
816.717	2127.6
814.932	2120.11
813.146	2119.63
811.359	2106.55
809.574	2152.25
807.787	2199.32
806	2110.7
804.211	2082.25
802.424	2133.5
800.635	2114.84
798.846	2086.41
797.057	2080.34
795.268	2093.84
793.477	2029.12
791.686	2122.2
789.895	2205.46
788.104	2094.71
786.312	2101.21
784.52	2085.38
782.727	2112.8
780.934	2055.15
779.141	2043.53
777.346	2011.01
775.553	2055.13
773.758	2115.95
771.963	2121.04
770.166	2004.99
768.371	2074.13
766.574	1987.37
764.777	2075.96
762.98	2004.54
761.184	1966.53
759.385	2068.97
757.586	2062.94
755.787	2079.14
753.988	2085.61
752.189	2071.24
750.389	1990.21
748.588	1993.92
746.787	2090.64
744.986	2088.77
743.184	2025.85
741.383	2035.1
739.58	2072.08
737.777	2199.17
735.973	2075.29
734.17	2095.6
732.365	2074.33
730.561	2064.16
728.756	2105.24
726.951	2133.83
725.145	2115.34
723.338	2096.86
721.531	2214
719.725	2120.8
717.916	2195
716.109	2093.55
714.301	2116.57
712.492	2167.23
710.684	2197.13
708.873	2218.73
707.062	2121.53
705.252	2185.94
703.441	2237.9
701.631	2292.6
699.818	2188.57
698.006	2141.16
696.193	2158.6
694.381	2160.86
692.568	2192.07
690.754	2176.4
688.939	2214.49
687.125	2178.16
685.311	2261.68
683.494	2259.78
681.68	2246.86
679.863	2213.31
678.047	2350.41
676.229	2267.32
674.412	2313.56
672.594	2275.9
670.775	2268.5
668.957	2248.73
667.137	2406.25
665.318	2424.93
663.498	2313.11
661.678	2355.14
659.855	2450.7
658.035	2403.47
656.213	2437.22
654.391	2422.93
652.568	2455.29
650.744	2553.46
648.922	2559.73
647.098	2533.09
645.273	2507.84
643.449	2540.14
641.623	2679.27
639.799	2696.45
637.973	2665.7
636.146	2610.33
634.318	2723.31
632.492	2867.71
630.664	2934.07
628.836	2936.12
627.008	2891.69
625.178	2999
623.35	3130.86
621.52	3130.14
619.689	3184.05
617.859	3205.16
616.027	3336.85
614.195	3439.81
612.363	3565.93
610.531	3591.02
608.699	3512.44
606.865	3717.54
605.031	3962.09
603.197	3976.17
601.363	3975.24
599.529	4023.36
597.693	4174.99
595.857	4465.44
594.021	4446.7
592.186	4444.31
590.348	4565.75
588.51	4764.68
586.672	4943.12
584.834	4955.57
582.996	4851.08
581.156	5132.68
579.316	5439.97
577.477	5546.03
575.637	5509.42
573.795	5576.03
571.953	5749.87
570.111	5938.56
568.27	6013.17
566.428	5939.85
564.584	6009
562.74	6240.84
560.896	6349.2
559.053	6480.55
557.207	6290.66
555.361	6378.61
553.516	6439.42
551.67	6700.62
549.824	6588.03
547.977	6342.84
546.129	6292.64
544.281	6473.81
542.434	6303.21
540.584	6215.18
538.736	5883.83
536.887	6187.93
535.035	6229.71
533.186	6053.96
531.334	5902.61
529.482	5643.3
527.631	5655.47
525.779	5772.91
523.926	5632.56
522.074	5442.36
520.221	5330.47
518.365	5222.68
516.512	5216.06
514.656	5031.52
512.803	4958.91
510.945	4814.94
509.09	4812.45
507.232	4748.02
505.377	4589.39
503.52	4390.45
501.66	4367.88
499.803	4408.55
497.943	4234.01
496.084	4134.84
494.225	4055.89
492.365	3997.14
490.504	4053.97
488.645	3910.61
486.781	3763.28
484.92	3838.93
483.059	3738.68
481.195	3681.42
479.332	3587.96
477.469	3509.3
475.604	3501.76
473.74	3651.1
471.875	3607.34
470.01	3408.13
468.145	3345.68
466.277	3373.02
464.41	3348.11
462.543	3307.14
460.676	3292.97
458.809	3171.73
456.939	3236.54
455.07	3287.93
453.201	3202.9
451.332	3160.68
449.461	2992.84
447.59	3020.19
445.719	3102.3
443.848	3042.79
441.975	2943.24
440.104	2933.19
438.23	3027.25
436.355	3023.86
434.482	2851.03
432.607	2937.04
430.732	2877.66
428.857	2934.3
426.982	2828.3
425.105	2824.95
423.23	2739.01
421.354	2807.61
419.475	2902.81
417.598	2867.5
415.719	2842.85
413.84	2831.52
411.961	2840.15
410.08	2866.06
408.201	2761.66
406.32	2780.93
404.439	2751.02
402.557	2826.09
400.676	2897.14
398.793	2714.5
396.91	2703.22
395.027	2790.17
393.143	2827.98
391.258	2816.68
389.373	2709.89
387.488	2636.29
385.604	2751
383.717	2701.29
381.83	2675.45
379.943	2579.42
378.055	2605.28
376.168	2640.4
374.279	2680.79
372.391	2628.52
370.5	2475.72
368.611	2652.38
366.721	2598.83
364.83	2452.75
362.939	2527.5
361.047	2514.99
359.154	2534.19
357.262	2541.5
355.369	2465.6
353.477	2421.43
351.582	2464.39
349.688	2444
347.793	2525.19
345.896	2477.09
344.002	2407.91
342.105	2448.19
340.209	2527.99
338.311	2424.59
336.414	2337.04
334.516	2447.1
332.617	2442.55
330.717	2473.54
328.818	2434.76
326.918	2369.69
325.018	2400.68
323.117	2405.34
321.215	2370.57
319.312	2346.32
317.41	2343.11
315.508	2329.39
313.604	2318.31
311.701	2248.14
309.797	2271.21
307.891	2363.84
305.986	2271.4
304.08	2222.29
302.174	2188.95
300.268	2213.32
298.361	2204.91
296.453	2302.65
294.545	2227.39
292.637	2152.17
290.727	2128.07
288.818	2189.07
286.908	2248.73
284.998	2142.18
283.086	2207.05
281.176	2213.04
279.264	2134.03
277.352	2202.78
275.438	2121.2
273.525	2201.68
271.611	2137.12
269.697	2167.93
267.781	2167.38
265.867	2131.59
263.951	2158.46
262.035	2234.9
260.119	2145.64
258.201	2164.66
256.283	2051.99
254.365	2170.08
252.447	2097.87
250.527	2135.12
248.607	2095.51
246.688	2049.41
244.768	2132.2
242.846	2054.88
240.926	2107.7
239.002	2074.65
237.08	2076.72
235.158	2100.89
233.234	2100.36
231.311	2079.04
229.385	2046.03
227.461	2063.69
225.535	2143.67
223.609	2022.4
221.684	2023.18
219.756	2062.89
217.828	2072.73
215.9	2094.25
213.973	2039.26
212.043	2021.89
210.113	2057.66
208.184	2050.65
206.254	2012.57
204.322	1970.62
202.391	2011.54
200.459	2057.61
198.527	2073.9
196.594	1980.24
194.66	1962.92
192.727	2015.41
190.793	2054.96
188.857	2026
186.922	1897.59
184.986	2017.21
183.051	2027.01
181.113	2053.59
179.176	2090.48
177.238	2062.85
175.301	2054.58
173.361	2096.59
171.422	2105.07
169.482	2082.62
167.541	2070.48
165.602	2248.98
163.66	2223.93
161.717	2149.97
159.775	2133.96
157.832	2155.28
155.889	2244.76
153.945	2254.46
152	2174.16
150.055	2160.74
148.109	2202.58
146.164	2248.25
144.217	2225.82
142.27	2236.79
140.322	2170.74
138.375	2245.88
136.426	2268.39
134.477	2270.35
132.527	2212.05
130.578	2248.64
128.627	2304.44
126.676	2352.52
124.725	2323.72
122.771	2390.98
120.82	2501.73
118.867	2460.11
116.912	2398.03
114.959	2378.21
113.004	2418.5
111.049	2448.54
109.094	2541.2
107.137	2517.52
105.18	2477.25
103.223	2580.04
101.266	2649.58
99.3066	2634.83
97.3477	2631.57
95.3887	2771.21
93.4277	2696.49
91.4668	2699.59
89.5059	2649.15
87.5449	2626.77
85.582	2770.04
83.6211	2877.57
81.6562	2833.5
79.6934	2839.1
77.7285	2853.6
75.7637	2990.26
73.7988	2874.96
71.834	2824.58
69.8672	2958.59
67.9004	3053.11
65.9336	3010.35
63.9648	2853.28
61.9961	2636.59
60.0273	2381.94
58.0586	1829.12
56.0879	1239.81
54.1172	780.221
52.1465	544.103
50.1738	320.793
48.2031	191.409
46.2305	117.856
44.2559	112.756
42.2832	64.595
40.3086	55.7137