File: PeakFitting/xrdData/jacobson_raman/C3_02135_532nm_5sec_5per_50x.txt
#Wave		#Intensity
1818.91	1676.44
1817.34	1716.35
1815.78	1770.3
1814.21	1798.69
1812.64	1737.71
1811.07	1665.58
1809.51	1760.97
1807.94	1754.25
1806.37	1737.97
1804.8	1744.01
1803.23	1638.48
1801.67	1764.06
1800.1	1656.97
1798.53	1733.11
1796.96	1782.15
1795.39	1784.99
1793.82	1786.23
1792.25	1672.88
1790.68	1707.56
1789.1	1715.19
1787.53	1721.22
1785.96	1782.91
1784.39	1747.58
1782.82	1728.16
1781.24	1753.26
1779.67	1789.47
1778.1	1792.3
1776.52	1729.99
1774.95	1737.59
1773.38	1724.55
1771.8	1800.42
1770.22	1788.95
1768.65	1734.64
1767.07	1707.33
1765.5	1806.93
1763.92	1790.72
1762.35	1796.71
1760.77	1782.08
1759.19	1772.22
1757.62	1719.57
1756.04	1784.2
1754.46	1826.62
1752.88	1873.77
1751.3	1832.23
1749.72	1768.53
1748.14	1766.6
1746.56	1813.73
1744.98	1808.62
1743.4	1786.11
1741.82	1852.18
1740.24	1790.14
1738.66	1797.69
1737.08	1802.07
1735.5	1815.93
1733.92	1858.23
1732.33	1846.8
1730.75	1734.29
1729.17	1776.58
1727.58	1839.38
1726	1887.94
1724.42	1865.47
1722.83	1872.98
1721.25	1770.06
1719.66	1780.74
1718.08	1821.38
1716.49	1836.78
1714.9	1801.73
1713.32	1839.19
1711.73	1755.31
1710.14	1829
1708.56	1849.1
1706.97	1823.53
1705.38	1708.23
1703.79	1778.72
1702.21	1806.68
1700.62	1773.27
1699.03	1834.26
1697.44	1863.77
1695.85	1923.15
1694.26	1768.68
1692.67	1865.77
1691.08	1896.82
1689.49	1846.16
1687.89	1847.35
1686.3	1803
1684.71	1838.74
1683.12	1830.52
1681.53	1866.24
1679.93	1887.83
1678.34	1815.27
1676.74	1847.84
1675.15	1831.77
1673.56	1889.41
1671.96	1846.7
1670.37	1934.09
1668.77	1786.39
1667.18	1828.32
1665.58	1906.26
1663.98	1968.51
1662.39	1878.85
1660.79	1850.29
1659.19	1851.47
1657.59	1851.09
1656	1896.07
1654.4	1962.93
1652.8	1967.22
1651.2	1883.95
1649.6	1911.69
1648	1911.29
1646.4	1953.08
1644.8	1933.93
1643.2	1938.21
1641.6	1858.17
1640	1928.04
1638.4	1897.98
1636.79	2013.06
1635.19	1934.63
1633.59	1929.55
1631.98	1877.68
1630.38	1949.01
1628.78	1939.25
1627.17	1946.63
1625.57	1986.74
1623.96	1933.35
1622.36	1864.41
1620.75	1904.51
1619.15	2062.92
1617.54	1948.85
1615.94	1985.79
1614.33	1910.69
1612.72	1911.84
1611.12	1931.66
1609.51	2054.09
1607.9	1932.4
1606.29	1956.86
1604.68	1971.98
1603.07	1970.01
1601.46	1966.49
1599.85	1989.37
1598.24	1964.11
1596.63	1915.57
1595.02	1981.9
1593.41	2024.93
1591.8	1929.86
1590.19	1982.19
1588.58	1885.63
1586.96	1942.59
1585.35	1895.68
1583.74	1946.41
1582.12	2032.76
1580.51	1964.17
1578.89	1940.52
1577.28	2003.59
1575.67	1972.21
1574.05	2016.67
1572.44	1994.58
1570.82	2011.17
1569.2	1964.34
1567.59	1920.62
1565.97	2020.7
1564.35	1993.99
1562.73	1962.66
1561.12	1986.96
1559.5	1966.45
1557.88	2024.72
1556.26	2032
1554.64	1992.98
1553.02	1940.07
1551.4	1947.37
1549.78	2013.29
1548.16	2015.94
1546.54	2046.35
1544.92	1928.74
1543.29	1962.24
1541.67	1972.6
1540.05	1978.34
1538.43	2111.93
1536.8	2026.77
1535.18	2092.54
1533.55	1944.31
1531.93	1985.44
1530.31	1994.25
1528.68	2050.74
1527.06	2051.83
1525.43	1917.61
1523.8	1998.68
1522.18	2055.12
1520.55	2005.5
1518.92	1997.38
1517.3	1960.08
1515.67	1932.01
1514.04	1960.77
1512.41	2029.42
1510.78	2036.66
1509.15	2011.66
1507.52	1905.37
1505.89	1973.98
1504.26	2028.76
1502.63	2039.05
1501	1926.71
1499.37	1986.06
1497.74	1921.28
1496.11	1923.92
1494.47	1967.92
1492.84	1991.99
1491.21	1959.41
1489.57	1948.27
1487.94	1908.06
1486.31	1976.48
1484.67	2006.64
1483.04	2001.62
1481.4	1903.34
1479.77	1867.77
1478.13	1983.5
1476.49	2005.98
1474.86	1982.63
1473.22	1957.76
1471.58	1882.52
1469.95	1972.17
1468.31	1965.64
1466.67	2056.75
1465.03	1899.18
1463.39	2045.18
1461.75	1913.6
1460.11	1990.93
1458.47	1937.15
1456.83	1950.43
1455.19	1956.1
1453.55	1978.52
1451.91	1936.97
1450.26	1957.86
1448.62	2030.49
1446.98	1929.61
1445.34	1953.53
1443.69	1907.46
1442.05	2030.23
1440.4	2051.07
1438.76	2021.73
1437.11	1902.75
1435.47	1928.16
1433.82	2028
1432.18	2056.41
1430.53	2013.44
1428.88	1975.04
1427.24	1986.75
1425.59	2010.59
1423.94	2010.15
1422.29	2037
1420.64	1988.03
1419	1980.01
1417.35	1915.91
1415.7	1963.98
1414.05	2037.79
1412.4	2008.56
1410.74	2012.66
1409.09	1983.44
1407.44	1960.3
1405.79	1978.03
1404.14	2022.98
1402.48	2010.43
1400.83	2016.04
1399.18	1938.48
1397.53	1951.65
1395.87	2067.6
1394.22	1994.61
1392.56	2010.79
1390.91	2033
1389.25	1926.84
1387.6	2021.53
1385.94	2048.25
1384.28	2002.52
1382.62	1926.64
1380.97	1948.84
1379.31	2019.29
1377.65	2074.62
1375.99	2039.49
1374.33	1944.1
1372.68	1896.96
1371.02	1979.39
1369.36	1920.21
1367.7	2010.13
1366.04	1964.52
1364.37	1908.4
1362.71	2025.34
1361.05	1955.69
1359.39	2018.42
1357.72	2020.98
1356.06	1997.98
1354.4	1984.01
1352.74	1985.07
1351.07	2043.22
1349.41	2030.75
1347.74	1931.18
1346.08	1941.26
1344.41	1966.35
1342.75	1994.42
1341.08	2023.99
1339.41	1956.03
1337.75	1996.09
1336.08	1991.15
1334.41	1993.7
1332.74	2068.19
1331.07	2037.76
1329.41	1954.92
1327.74	2024.87
1326.07	2049.87
1324.4	2011.99
1322.73	2069.91
1321.05	2026.06
1319.38	2031.59
1317.71	2026.65
1316.04	2062.08
1314.37	2069.1
1312.7	1966.99
1311.02	2051.73
1309.35	2019.9
1307.68	2050.81
1306	2077.24
1304.33	2055.87
1302.65	2030.03
1300.98	2051.96
1299.3	2108.2
1297.62	2057.01
1295.95	2056.55
1294.27	2015.83
1292.6	1982.59
1290.92	2068.58
1289.24	2130.7
1287.56	2103.41
1285.88	2031.45
1284.21	2022.06
1282.53	1966.53
1280.85	2007.76
1279.17	2096.59
1277.48	2091.66
1275.8	2082.26
1274.12	2062.47
1272.44	2096.2
1270.76	2122.48
1269.08	2040.27
1267.39	2016.05
1265.71	2039.36
1264.03	2120.57
1262.34	2041.41
1260.66	2032.05
1258.97	2119.15
1257.29	2028.17
1255.6	2060.35
1253.92	2089.54
1252.23	2074.25
1250.54	2130.11
1248.86	2006.62
1247.17	2044.7
1245.48	2190.89
1243.79	2113.38
1242.11	2105.51
1240.42	2142.04
1238.73	2141.56
1237.04	2139.6
1235.35	2145.03
1233.66	2143.07
1231.97	2135.2
1230.28	2096.28
1228.59	2150.5
1226.89	2138.19
1225.2	2251.46
1223.51	2177.11
1221.82	2186.95
1220.12	2263.23
1218.43	2259.77
1216.73	2266.64
1215.04	2229.24
1213.35	2159.42
1211.65	2225.29
1209.96	2375.17
1208.26	2377.59
1206.56	2285.68
1204.87	2338.21
1203.17	2308.22
1201.47	2388.7
1199.77	2382.27
1198.07	2368.49
1196.38	2409.16
1194.68	2367.42
1192.98	2353.65
1191.28	2376.65
1189.58	2429.04
1187.88	2360.87
1186.18	2388.27
1184.47	2436.22
1182.77	2451.83
1181.07	2510.02
1179.37	2503.58
1177.66	2456.04
1175.96	2600.79
1174.26	2537.1
1172.55	2587.88
1170.85	2562.36
1169.14	2563.25
1167.44	2548.01
1165.73	2587.01
1164.03	2608.41
1162.32	2618.07
1160.61	2591.12
1158.91	2606.64
1157.2	2581.16
1155.49	2655.23
1153.78	2698.53
1152.07	2656.96
1150.37	2562.74
1148.66	2743.5
1146.95	2712.18
1145.24	2796.35
1143.53	2671.49
1141.81	2679.66
1140.1	2737.48
1138.39	2786.52
1136.68	2791.73
1134.96	2815.92
1133.25	2745.23
1131.54	2767.95
1129.83	2811.09
1128.11	2855.67
1126.4	2846.27
1124.68	2797.52
1122.97	2882.88
1121.25	2925.94
1119.54	2939.85
1117.82	2949.38
1116.1	2970.55
1114.38	2982.98
1112.67	3001.23
1110.95	2974.36
1109.23	2948.95
1107.51	2996.28
1105.79	2946.16
1104.07	3054.54
1102.35	3020.41
1100.63	3118.55
1098.91	2914.44
1097.19	2944.29
1095.47	2968.31
1093.75	3140.41
1092.03	3048.25
1090.3	3092.55
1088.58	2996.09
1086.86	3041.83
1085.13	3081.75
1083.41	3137.59
1081.68	3049.91
1079.96	3075.31
1078.23	3026.8
1076.51	3069.57
1074.78	3064.53
1073.05	3027.64
1071.33	2937.2
1069.6	3050.87
1067.87	2941.66
1066.14	3039.36
1064.41	2954.79
1062.69	3003.28
1060.96	3030.07
1059.23	2973.01
1057.5	2979.56
1055.77	3046.79
1054.04	2903.11
1052.3	2893.79
1050.57	3015.84
1048.84	3000.73
1047.11	3057.77
1045.38	2917.13
1043.64	2842.91
1041.91	2869.66
1040.17	2994.44
1038.44	2993.76
1036.71	2895.09
1034.97	2869.94
1033.23	2828.96
1031.5	2960.81
1029.76	2883.83
1028.03	2947.95
1026.29	2806.25
1024.55	2845.9
1022.81	2859.64
1021.07	2903.57
1019.33	2869.84
1017.6	2781.51
1015.86	2802.43
1014.12	2816.17
1012.38	2871.55
1010.63	2738.77
1008.89	2753.94
1007.15	2717.43
1005.41	2870.38
1003.67	2762.11
1001.93	2831.78
1000.18	2756.56
998.439	2791.78
996.695	2719.47
994.951	2810.58
993.205	2811.37
991.461	2693.26
989.715	2699.81
987.969	2653.38
986.223	2722.92
984.477	2778.13
982.729	2657.3
980.982	2600.9
979.234	2650.37
977.486	2619.74
975.736	2653.45
973.988	2598.54
972.238	2596.52
970.488	2627.36
968.738	2631.05
966.988	2677.57
965.236	2567.03
963.484	2637.82
961.734	2651.49
959.98	2623.78
958.229	2698.78
956.475	2602.62
954.723	2570.66
952.969	2564.38
951.215	2518.19
949.459	2661.52
947.705	2536.99
945.949	2472.33
944.193	2560.04
942.438	2560.88
940.68	2585.92
938.924	2579.64
937.166	2497.97
935.408	2527.27
933.65	2584.99
931.891	2531.8
930.133	2453.06
928.373	2506.5
926.613	2554.23
924.854	2576.37
923.092	2572.94
921.33	2409.1
919.57	2515
917.809	2524.36
916.045	2472.72
914.283	2490.59
912.52	2453.16
910.756	2427.08
908.992	2524.33
907.229	2501.08
905.463	2499.09
903.699	2487.19
901.934	2452.64
900.168	2525.7
898.4	2560.51
896.635	2525.97
894.867	2542.37
893.1	2420.15
891.332	2454.95
889.564	2549.12
887.795	2530.16
886.025	2422.18
884.256	2448.48
882.486	2402.72
880.717	2471.37
878.945	2477.86
877.174	2460.36
875.402	2407.58
873.631	2432.43
871.859	2479.84
870.086	2452.48
868.312	2444.87
866.539	2362.55
864.766	2436.71
862.992	2458.7
861.217	2411.65
859.441	2418.14
857.666	2355.64
855.891	2414.22
854.113	2406.64
852.338	2452.52
850.561	2395.69
848.783	2351.55
847.004	2372.1
845.227	2458.72
843.447	2372.43
841.668	2360.64
839.889	2310.94
838.109	2383.44
836.328	2461.53
834.547	2431.49
832.766	2345.32
830.984	2375.65
829.203	2341.44
827.42	2448.91
825.637	2413.29
823.854	2352.46
822.07	2342.11
820.287	2328.96
818.502	2444.71
816.717	2425.94
814.932	2415.59
813.146	2388.43
811.359	2406.08
809.574	2425.12
807.787	2460.95
806	2431.01
804.211	2416.47
802.424	2383.76
800.635	2401.39
798.846	2368.7
797.057	2359.77
795.268	2366.22
793.477	2392.21
791.686	2369.32
789.895	2416.24
788.104	2447.78
786.312	2349.56
784.52	2358.79
782.727	2433.55
780.934	2399.53
779.141	2348.8
777.346	2385.89
775.553	2344.94
773.758	2369.48
771.963	2377.29
770.166	2282.07
768.371	2305.21
766.574	2317.2
764.777	2398.77
762.98	2395.43
761.184	2360.12
759.385	2334.55
757.586	2407.69
755.787	2386.29
753.988	2394.08
752.189	2293.51
750.389	2376.31
748.588	2386.88
746.787	2507.1
744.986	2488.49
743.184	2379.68
741.383	2365.26
739.58	2366.11
737.777	2429.35
735.973	2408
734.17	2444.87
732.365	2379.18
730.561	2428.5
728.756	2484.73
726.951	2417.69
725.145	2368.69
723.338	2386.13
721.531	2478.3
719.725	2463.89
717.916	2521.42
716.109	2451.7
714.301	2543.76
712.492	2591.55
710.684	2579.9
708.873	2573.78
707.062	2400.53
705.252	2489.74
703.441	2567.86
701.631	2539.66
699.818	2616.35
698.006	2548.15
696.193	2525.49
694.381	2586.97
692.568	2561.55
690.754	2617.47
688.939	2516.28
687.125	2540.49
685.311	2681.78
683.494	2664.64
681.68	2626.85
679.863	2583.57
678.047	2682.06
676.229	2702.07
674.412	2665.69
672.594	2615.57
670.775	2608.09
668.957	2617.11
667.137	2742.93
665.318	2793.13
663.498	2786.99
661.678	2753.39
659.855	2851.6
658.035	2833.1
656.213	2784.41
654.391	2794.74
652.568	2840.73
650.744	2886.7
648.922	2962.81
647.098	2905.93
645.273	2986.11
643.449	3092.28
641.623	3035.41
639.799	3112.76
637.973	3051.8
636.146	3023.71
634.318	3072.28
632.492	3243.96
630.664	3317.07
628.836	3269.8
627.008	3310.06
625.178	3365.33
623.35	3509.41
621.52	3556.42
619.689	3505.05
617.859	3576.61
616.027	3730.06
614.195	3819.29
612.363	3792.47
610.531	3892.55
608.699	3884.82
606.865	4095.3
605.031	4278.41
603.197	4331.93
601.363	4313.21
599.529	4456.63
597.693	4651.74
595.857	4830.41
594.021	4755.77
592.186	4922.08
590.348	4939.99
588.51	5201.42
586.672	5302.23
584.834	5426.1
582.996	5422.12
581.156	5638.34
579.316	5802.82
577.477	6077.27
575.637	6039.17
573.795	6092.08
571.953	6309.25
570.111	6478.8
568.27	6577.71
566.428	6521.9
564.584	6631.6
562.74	6909.41
560.896	7021.67
559.053	7005.12
557.207	7084.79
555.361	7339.19
553.516	7439.06
551.67	7540.23
549.824	7396.31
547.977	7313.35
546.129	7289.99
544.281	7569.68
542.434	7561.14
540.584	7372.75
538.736	7004.63
536.887	7169.23
535.035	7385.12
533.186	7244.22
531.334	6960.22
529.482	6816.79
527.631	6813.83
525.779	7043.04
523.926	6851.1
522.074	6559.43
520.221	6491.79
518.365	6506.44
516.512	6465.81
514.656	6163.71
512.803	6053.11
510.945	6081.31
509.09	6009.84
507.232	5969.37
505.377	5728.32
503.52	5562.76
501.66	5371.71
499.803	5604.53
497.943	5422.97
496.084	5390.76
494.225	5154.22
492.365	5049.51
490.504	5095.34
488.645	4955.76
486.781	4758.5
484.92	4765.43
483.059	4740.13
481.195	4728.27
479.332	4454.76
477.469	4524.8
475.604	4388.27
473.74	4526.67
471.875	4422.37
470.01	4319.46
468.145	4212.59
466.277	4243.73
464.41	4225.31
462.543	4239.03
460.676	4038.57
458.809	3902.44
456.939	3897.49
455.07	3975.48
453.201	3953.13
451.332	3873.31
449.461	3662.52
447.59	3844.73
445.719	3814.41
443.848	3721.34
441.975	3589.57
440.104	3631.44
438.23	3738.68
436.355	3644.38
434.482	3582.13
432.607	3455.89
430.732	3523.07
428.857	3636.88
426.982	3472.06
425.105	3371.29
423.23	3341.17
421.354	3482.88
419.475	3480.71
417.598	3418.63
415.719	3431.12
413.84	3412.99
411.961	3373.59
410.08	3511.09
408.201	3465.04
406.32	3323.3
404.439	3426.15
402.557	3485.12
400.676	3445.75
398.793	3229.78
396.91	3296.71
395.027	3355.64
393.143	3437.11
391.258	3377.9
389.373	3284.23
387.488	3181.32
385.604	3281.31
383.717	3279.19
381.83	3229.36
379.943	3248.45
378.055	3140.37
376.168	3346.18
374.279	3201.07
372.391	3152.64
370.5	3113.5
368.611	3184.18
366.721	3145.05
364.83	3057.01
362.939	3154.09
361.047	3018.51
359.154	3060.06
357.262	3224.43
355.369	3037.43
353.477	3005
351.582	2971.26
349.688	3168.48
347.793	3071.4
345.896	3012.61
344.002	3032.97
342.105	3052
340.209	3088.15
338.311	3021.51
336.414	2946.99
334.516	2950.22
332.617	2994.26
330.717	2993.52
328.818	2941.46
326.918	2973.63
325.018	3000.52
323.117	2931.39
321.215	2956.96
319.312	2923.37
317.41	2867.45
315.508	2881.2
313.604	2898.87
311.701	2878.46
309.797	2734.64
307.891	2896.72
305.986	2751.66
304.08	2813.94
302.174	2827.67
300.268	2760.1
298.361	2788.25
296.453	2799.35
294.545	2726.59
292.637	2661.73
290.727	2695.11
288.818	2724.55
286.908	2836.44
284.998	2765.07
283.086	2718.59
281.176	2763.69
279.264	2740.77
277.352	2781.91
275.438	2722.4
273.525	2729.56
271.611	2698.83
269.697	2793.49
267.781	2709.23
265.867	2695.49
263.951	2663.5
262.035	2738.5
260.119	2750.85
258.201	2681.05
256.283	2611.27
254.365	2609.31
252.447	2689.44
250.527	2751.29
248.607	2612.55
246.688	2583.24
244.768	2638.56
242.846	2671.73
240.926	2671.05
239.002	2566.32
237.08	2702.21
235.158	2652.12
233.234	2703.43
231.311	2615.69
229.385	2633.21
227.461	2665.01
225.535	2624.08
223.609	2635.09
221.684	2681.14
219.756	2614.29
217.828	2639.56
215.9	2647.96
213.973	2559.13
212.043	2616.8
210.113	2604.47
208.184	2665.98
206.254	2636.8
204.322	2507.94
202.391	2584.97
200.459	2607.6
198.527	2599.16
196.594	2522.18
194.66	2570.67
192.727	2570.01
190.793	2674.03
188.857	2597.11
186.922	2558.97
184.986	2549.27
183.051	2650.61
181.113	2735.11
179.176	2633.75
177.238	2664.03
175.301	2757.49
173.361	2760.64
171.422	2763.79
169.482	2750.19
167.541	2785.55
165.602	2836.35
163.66	2775.08
161.717	2886.36
159.775	2845.71
157.832	2851.4
155.889	3001.16
153.945	2826.76
152	2872.31
150.055	2803.43
148.109	2953.04
146.164	2981.82
144.217	2961.77
142.27	2923.75
140.322	2953.79
138.375	2960.72
136.426	2925.29
134.477	2934.78
132.527	2985.3
130.578	2965.29
128.627	3000.39
126.676	3117.48
124.725	3082.07
122.771	3106.86
120.82	3232.79
118.867	3261.37
116.912	3131.26
114.959	3184.16
113.004	3220.4
111.049	3286.03
109.094	3319.67
107.137	3387.79
105.18	3356.23
103.223	3400.03
101.266	3498.72
99.3066	3468.43
97.3477	3527.48
95.3887	3587.78
93.4277	3674.83
91.4668	3758
89.5059	3444.66
87.5449	3642.55
85.582	3663.23
83.6211	3812.56
81.6562	3710.92
79.6934	3673
77.7285	3772.56
75.7637	3933.14
73.7988	3897.73
71.834	3758.05
69.8672	3882.91
67.9004	4017.86
65.9336	4032.01
63.9648	3792.09
61.9961	3567.53
60.0273	3052.33
58.0586	2372.4
56.0879	1691.57
54.1172	1101.19
52.1465	684.885
50.1738	426.034
48.2031	262.395
46.2305	172.348
44.2559	110.222
42.2832	73.461
40.3086	44.3177