File: PeakFitting/xrdData/jacobson_raman/C3_02160_532nm_5sec_5per_50x.txt
#Wave		#Intensity
1818.91	1994.16
1817.34	2045.25
1815.78	2102.33
1814.21	2058.84
1812.64	2012.17
1811.07	1946.37
1809.51	2020.97
1807.94	2020.58
1806.37	2072.81
1804.8	2030.96
1803.23	1941.32
1801.67	2023.81
1800.1	2060.06
1798.53	2040.55
1796.96	2065.64
1795.39	2014.28
1793.82	1939.07
1792.25	1951.43
1790.68	2016.29
1789.1	2103.41
1787.53	2017.1
1785.96	1919.69
1784.39	1989.28
1782.82	2031.82
1781.24	2102.96
1779.67	2158.17
1778.1	2065.59
1776.52	1990.52
1774.95	1971.07
1773.38	2097.72
1771.8	2154.47
1770.22	2046.1
1768.65	2018.72
1767.07	2013.57
1765.5	2043.31
1763.92	2119.04
1762.35	2182.06
1760.77	2065.88
1759.19	2044.87
1757.62	2027.03
1756.04	2135.96
1754.46	2097.52
1752.88	2097.1
1751.3	2052.35
1749.72	2063.02
1748.14	1992.96
1746.56	2073.28
1744.98	2139.33
1743.4	2045.56
1741.82	2045.15
1740.24	2081.12
1738.66	2007.97
1737.08	2088.19
1735.5	2067.23
1733.92	2071.55
1732.33	2063.24
1730.75	2056.51
1729.17	2084.52
1727.58	2066.73
1726	2110.52
1724.42	2099.04
1722.83	2003.95
1721.25	1998.81
1719.66	2074.12
1718.08	2139.93
1716.49	2106.39
1714.9	2016.11
1713.32	2074.02
1711.73	2095.66
1710.14	2120.44
1708.56	2074.33
1706.97	2039.27
1705.38	2043.58
1703.79	2003.81
1702.21	2064.78
1700.62	2108.41
1699.03	2104.84
1697.44	2093.4
1695.85	2072.53
1694.26	2125.56
1692.67	2128.27
1691.08	2124.69
1689.49	2168.25
1687.89	2039
1686.3	2088.84
1684.71	2041.3
1683.12	2155.49
1681.53	2177.02
1679.93	2101.25
1678.34	2157.3
1676.74	2133.33
1675.15	2237.96
1673.56	2166.94
1671.96	2152.39
1670.37	2147.24
1668.77	2099.79
1667.18	2152.62
1665.58	2269.66
1663.98	2247.26
1662.39	2260.89
1660.79	2224.42
1659.19	2284.99
1657.59	2251.66
1656	2285.61
1654.4	2316.42
1652.8	2298.74
1651.2	2224.78
1649.6	2275.9
1648	2278.55
1646.4	2426.51
1644.8	2313.53
1643.2	2330.23
1641.6	2282.9
1640	2408.88
1638.4	2367.79
1636.79	2495.26
1635.19	2383.96
1633.59	2366.31
1631.98	2437.55
1630.38	2440.16
1628.78	2480.18
1627.17	2537.32
1625.57	2522.77
1623.96	2458.37
1622.36	2501.46
1620.75	2560.11
1619.15	2699.7
1617.54	2543.47
1615.94	2544.49
1614.33	2610.86
1612.72	2611.87
1611.12	2659.53
1609.51	2707.17
1607.9	2687.94
1606.29	2584.79
1604.68	2668.16
1603.07	2686.24
1601.46	2670.14
1599.85	2762.76
1598.24	2682.99
1596.63	2645.16
1595.02	2658.57
1593.41	2856.62
1591.8	2775.34
1590.19	2737.53
1588.58	2744.7
1586.96	2705.36
1585.35	2757.49
1583.74	2839.03
1582.12	2779.55
1580.51	2755.73
1578.89	2657.57
1577.28	2701.91
1575.67	2761.71
1574.05	2784.33
1572.44	2728.03
1570.82	2711.98
1569.2	2802.66
1567.59	2754.12
1565.97	2813.83
1564.35	2748.31
1562.73	2726.08
1561.12	2646.7
1559.5	2680.12
1557.88	2755.22
1556.26	2716.03
1554.64	2718.54
1553.02	2668.56
1551.4	2657.19
1549.78	2692.1
1548.16	2720.83
1546.54	2778.84
1544.92	2674.95
1543.29	2672.83
1541.67	2681.5
1540.05	2756.42
1538.43	2708.08
1536.8	2689.01
1535.18	2648.4
1533.55	2650.91
1531.93	2627.25
1530.31	2782.1
1528.68	2715.35
1527.06	2705.53
1525.43	2600.38
1523.8	2593.67
1522.18	2703.78
1520.55	2689.36
1518.92	2573.55
1517.3	2599.1
1515.67	2641.54
1514.04	2703.92
1512.41	2608.16
1510.78	2593.78
1509.15	2548.72
1507.52	2505.21
1505.89	2607.43
1504.26	2634.47
1502.63	2650.76
1501	2556.68
1499.37	2674.13
1497.74	2540.25
1496.11	2630.08
1494.47	2703.01
1492.84	2710.08
1491.21	2547.23
1489.57	2532.9
1487.94	2604.26
1486.31	2608.28
1484.67	2664.31
1483.04	2567.39
1481.4	2568.36
1479.77	2506.66
1478.13	2600.86
1476.49	2652.23
1474.86	2622.63
1473.22	2600.68
1471.58	2484.08
1469.95	2585.8
1468.31	2637.13
1466.67	2631.97
1465.03	2532.24
1463.39	2485.93
1461.75	2586.03
1460.11	2591.56
1458.47	2594.04
1456.83	2520.33
1455.19	2487.78
1453.55	2528.36
1451.91	2562.83
1450.26	2624.69
1448.62	2595.19
1446.98	2626.58
1445.34	2591.01
1443.69	2509.82
1442.05	2614.2
1440.4	2631.87
1438.76	2572.01
1437.11	2586.64
1435.47	2643.81
1433.82	2608.29
1432.18	2744.41
1430.53	2713.43
1428.88	2650.59
1427.24	2621.17
1425.59	2647.91
1423.94	2685.25
1422.29	2748.36
1420.64	2652.22
1419	2562.19
1417.35	2579.81
1415.7	2624.7
1414.05	2669.58
1412.4	2699.28
1410.74	2657.8
1409.09	2602.7
1407.44	2724.74
1405.79	2728.68
1404.14	2719
1402.48	2657.89
1400.83	2678.47
1399.18	2682.42
1397.53	2627.4
1395.87	2764.36
1394.22	2715.39
1392.56	2657.38
1390.91	2652.26
1389.25	2743.79
1387.6	2744.69
1385.94	2792.38
1384.28	2649.91
1382.62	2705.15
1380.97	2648.73
1379.31	2756.73
1377.65	2772.7
1375.99	2714.8
1374.33	2684.06
1372.68	2633.74
1371.02	2788.31
1369.36	2778.66
1367.7	2647.04
1366.04	2697.64
1364.37	2645.87
1362.71	2774.69
1361.05	2814.69
1359.39	2791.5
1357.72	2651.03
1356.06	2715.09
1354.4	2773.1
1352.74	2783
1351.07	2869.52
1349.41	2790.78
1347.74	2701.56
1346.08	2684.44
1344.41	2773.9
1342.75	2804.8
1341.08	2745.66
1339.41	2661.05
1337.75	2708.44
1336.08	2695.84
1334.41	2731.22
1332.74	2750.09
1331.07	2753.97
1329.41	2627.53
1327.74	2752.75
1326.07	2735.66
1324.4	2776.97
1322.73	2698.52
1321.05	2588.68
1319.38	2737.71
1317.71	2729.61
1316.04	2757.42
1314.37	2729.89
1312.7	2650.06
1311.02	2679.36
1309.35	2708.64
1307.68	2745.37
1306	2814.95
1304.33	2657.55
1302.65	2565.9
1300.98	2651.88
1299.3	2655.77
1297.62	2629.81
1295.95	2568.08
1294.27	2567.51
1292.6	2544.57
1290.92	2642.36
1289.24	2570.25
1287.56	2559.25
1285.88	2445.48
1284.21	2443.45
1282.53	2532.22
1280.85	2551
1279.17	2574.24
1277.48	2494.81
1275.8	2509.13
1274.12	2416.37
1272.44	2540.71
1270.76	2580.27
1269.08	2417.72
1267.39	2466.2
1265.71	2464.16
1264.03	2479.94
1262.34	2448.21
1260.66	2431.33
1258.97	2438.21
1257.29	2351.61
1255.6	2478.64
1253.92	2374.28
1252.23	2394.5
1250.54	2349.49
1248.86	2301.54
1247.17	2373.63
1245.48	2362.72
1243.79	2433.28
1242.11	2357.22
1240.42	2414.42
1238.73	2424.24
1237.04	2402.98
1235.35	2361.02
1233.66	2400.42
1231.97	2358.48
1230.28	2347.6
1228.59	2361.85
1226.89	2377.57
1225.2	2397.72
1223.51	2333.67
1221.82	2339.05
1220.12	2424.15
1218.43	2404.42
1216.73	2430.44
1215.04	2370.88
1213.35	2367.39
1211.65	2396.35
1209.96	2358.96
1208.26	2411.49
1206.56	2356.42
1204.87	2397.14
1203.17	2277.29
1201.47	2477.06
1199.77	2455.89
1198.07	2453.86
1196.38	2328.22
1194.68	2333.58
1192.98	2408.07
1191.28	2439.89
1189.58	2443.75
1187.88	2384.39
1186.18	2294.21
1184.47	2387.73
1182.77	2438.61
1181.07	2401.34
1179.37	2365.55
1177.66	2357.68
1175.96	2349.81
1174.26	2363.95
1172.55	2397.16
1170.85	2320.35
1169.14	2350.62
1167.44	2401.4
1165.73	2301.19
1164.03	2401.79
1162.32	2382.2
1160.61	2352.36
1158.91	2385.51
1157.2	2402.55
1155.49	2384.44
1153.78	2433.66
1152.07	2383.36
1150.37	2296.52
1148.66	2399.83
1146.95	2457.77
1145.24	2416.29
1143.53	2366.06
1141.81	2358.22
1140.1	2449.71
1138.39	2484.21
1136.68	2431.08
1134.96	2426.15
1133.25	2371.61
1131.54	2404.63
1129.83	2453.68
1128.11	2448.75
1126.4	2421.95
1124.68	2374.76
1122.97	2445.64
1121.25	2494.63
1119.54	2495.52
1117.82	2490.59
1116.1	2460.9
1114.38	2505.47
1112.67	2516.55
1110.95	2550.91
1109.23	2473.22
1107.51	2481.39
1105.79	2453.2
1104.07	2506.44
1102.35	2566.92
1100.63	2512.57
1098.91	2435
1097.19	2460.59
1095.47	2462.94
1093.75	2587.24
1092.03	2557.63
1090.3	2557.05
1088.58	2517.29
1086.86	2535.58
1085.13	2577.07
1083.41	2522.84
1081.68	2541.11
1079.96	2468.07
1078.23	2580.53
1076.51	2504.62
1074.78	2566.32
1073.05	2516.51
1071.33	2439.22
1069.6	2453.14
1067.87	2478.63
1066.14	2488.2
1064.41	2412.42
1062.69	2371.39
1060.96	2406.99
1059.23	2441.14
1057.5	2459.37
1055.77	2440.03
1054.04	2358.59
1052.3	2365.28
1050.57	2374.85
1048.84	2397.41
1047.11	2399.75
1045.38	2441.04
1043.64	2306.35
1041.91	2418.31
1040.17	2437.94
1038.44	2493.6
1036.71	2410.9
1034.97	2316.7
1033.23	2339.22
1031.5	2407.82
1029.76	2469.18
1028.03	2321.8
1026.29	2365.88
1024.55	2376.86
1022.81	2429.54
1021.07	2408.86
1019.33	2346.49
1017.6	2272.64
1015.86	2366.98
1014.12	2398.05
1012.38	2419.05
1010.63	2302.18
1008.89	2297.35
1007.15	2390.13
1005.41	2458.48
1003.67	2368.96
1001.93	2302.44
1000.18	2392.27
998.439	2291.35
996.695	2343.87
994.951	2374.87
993.205	2327.05
991.461	2283.54
989.715	2321.7
987.969	2324.03
986.223	2299.17
984.477	2341.58
982.729	2279.52
980.982	2297.6
979.234	2391.48
977.486	2279.4
975.736	2248.86
973.988	2274.08
972.238	2243.55
970.488	2263.04
968.738	2286.81
966.988	2260.59
965.236	2202.96
963.484	2260.99
961.734	2210.53
959.98	2207.17
958.229	2259.45
956.475	2164.81
954.723	2225.63
952.969	2246.5
951.215	2164.76
949.459	2319.57
947.705	2195.11
945.949	2170.41
944.193	2206.93
942.438	2350.2
940.68	2291.32
938.924	2262.34
937.166	2173.63
935.408	2269.85
933.65	2240.89
931.891	2174.99
930.133	2205.76
928.373	2148.43
926.613	2268.69
924.854	2251.13
923.092	2287.53
921.33	2123.76
919.57	2171.53
917.809	2290.23
916.045	2252.82
914.283	2263.66
912.52	2216.35
910.756	2218.68
908.992	2199.75
907.229	2240.34
905.463	2255.42
903.699	2225.16
901.934	2132.61
900.168	2241.14
898.4	2229.3
896.635	2200.49
894.867	2161.79
893.1	2222.12
891.332	2244.24
889.564	2307.35
887.795	2157
886.025	2136.72
884.256	2171.56
882.486	2168.24
880.717	2163.51
878.945	2170.07
877.174	2192.16
875.402	2243.88
873.631	2206.69
871.859	2146.94
870.086	2235.3
868.312	2117.76
866.539	2176.48
864.766	2180.21
862.992	2188.17
861.217	2166.54
859.441	2108.3
857.666	2151.47
855.891	2153.8
854.113	2225.08
852.338	2131.71
850.561	2129.82
848.783	2033.69
847.004	2159.78
845.227	2261.91
843.447	2178.47
841.668	2145.66
839.889	2087.57
838.109	2146.08
836.328	2131.55
834.547	2212.49
832.766	2109.52
830.984	2132.9
829.203	2192.73
827.42	2255.35
825.637	2193.14
823.854	2170.2
822.07	2129.06
820.287	2152.4
818.502	2217.75
816.717	2197.63
814.932	2061.3
813.146	2185.43
811.359	2235.32
809.574	2219.42
807.787	2186.73
806	2152.66
804.211	2163.36
802.424	2271.91
800.635	2258.81
798.846	2181.44
797.057	2166.97
795.268	2156.69
793.477	2238.59
791.686	2256.23
789.895	2195.69
788.104	2098.9
786.312	2176.55
784.52	2150.94
782.727	2294.09
780.934	2225.25
779.141	2223.35
777.346	2122.5
775.553	2208.4
773.758	2095.06
771.963	2155.85
770.166	2191.56
768.371	2143.73
766.574	2249.01
764.777	2235.97
762.98	2135.3
761.184	2127.86
759.385	2202.45
757.586	2214.46
755.787	2251.48
753.988	2184.27
752.189	2146.26
750.389	2195.76
748.588	2167.49
746.787	2275.27
744.986	2224.79
743.184	2122.98
741.383	2250.12
739.58	2267.64
737.777	2211.65
735.973	2229.16
734.17	2207.86
732.365	2193.5
730.561	2331.53
728.756	2246.51
726.951	2244.61
725.145	2242.71
723.338	2280.94
721.531	2353.76
719.725	2346.3
717.916	2360.98
716.109	2270.55
714.301	2373.71
712.492	2386.99
710.684	2338.08
708.873	2344.44
707.062	2298.33
705.252	2373.75
703.441	2399.43
701.631	2429.24
699.818	2402.46
698.006	2400.53
696.193	2365.5
694.381	2374.6
692.568	2462.29
690.754	2361.1
688.939	2344.02
687.125	2393.08
685.311	2498.59
683.494	2437.42
681.68	2456.13
679.863	2433.54
678.047	2456.37
676.229	2503.96
674.412	2464.87
672.594	2401.04
670.775	2455.48
668.957	2500.27
667.137	2562.91
665.318	2511.48
663.498	2465.57
661.678	2506.2
659.855	2645.66
658.035	2612.11
656.213	2660.9
654.391	2558.76
652.568	2667.9
650.744	2674.14
648.922	2758.53
647.098	2611.22
645.273	2702.43
643.449	2755.24
641.623	2853.23
639.799	2842.98
637.973	2721.84
636.146	2729.42
634.318	2845.11
632.492	2993.58
630.664	2902.6
628.836	2983.98
627.008	3059.86
625.178	3046.84
623.35	3158.2
621.52	3142.43
619.689	3123.95
617.859	3119.12
616.027	3253.56
614.195	3286.93
612.363	3292.99
610.531	3228.1
608.699	3382.85
606.865	3442.07
605.031	3535.34
603.197	3507.26
601.363	3430.13
599.529	3613.26
597.693	3732.29
595.857	3830.83
594.021	3810.88
592.186	3781.4
590.348	3954.71
588.51	4009.57
586.672	4034.48
584.834	4037.62
582.996	4088.34
581.156	4265.46
579.316	4430.25
577.477	4426.5
575.637	4345.32
573.795	4421.72
571.953	4606.69
570.111	4630.04
568.27	4733.45
566.428	4660.44
564.584	4712.25
562.74	4906.42
560.896	5050.34
559.053	4932.59
557.207	4985.64
555.361	5178.21
553.516	5228.47
551.67	5167.66
549.824	5205.71
547.977	5085.37
546.129	5185.67
544.281	5418.51
542.434	5222.46
540.584	5260.45
538.736	5137.54
536.887	5360.71
535.035	5349.99
533.186	5385.2
531.334	5231.31
529.482	5022.11
527.631	5261.25
525.779	5351.79
523.926	5243.92
522.074	5002.54
520.221	5044.52
518.365	5075.7
516.512	5206.62
514.656	4864.39
512.803	4896.93
510.945	4870.17
509.09	4881.14
507.232	4843.63
505.377	4627.08
503.52	4484.67
501.66	4538.78
499.803	4625.15
497.943	4599.84
496.084	4466.98
494.225	4443.06
492.365	4425.88
490.504	4387.21
488.645	4309.59
486.781	4109.8
484.92	4269.95
483.059	4224.64
481.195	4199.48
479.332	4124.68
477.469	4045.89
475.604	4116.01
473.74	4151.24
471.875	4073.84
470.01	3937.51
468.145	3927.19
466.277	3928.93
464.41	3993.62
462.543	3797.19
460.676	3701.24
458.809	3666.9
456.939	3759.68
455.07	3699.93
453.201	3673.63
451.332	3591.2
449.461	3562.27
447.59	3640.26
445.719	3659.43
443.848	3515.63
441.975	3434.67
440.104	3453.87
438.23	3517.11
436.355	3473.57
434.482	3316.64
432.607	3322.51
430.732	3444.4
428.857	3436.9
426.982	3338.78
425.105	3295.34
423.23	3294.54
421.354	3319.06
419.475	3339.56
417.598	3244.24
415.719	3206.19
413.84	3265.3
411.961	3309.74
410.08	3318.25
408.201	3191.13
406.32	3149.15
404.439	3278.64
402.557	3268.54
400.676	3217.27
398.793	3147.44
396.91	3186.51
395.027	3258.74
393.143	3204.87
391.258	3148.37
389.373	3060.06
387.488	3168.06
385.604	3256.12
383.717	3202.31
381.83	3073
379.943	3000.71
378.055	3121.83
376.168	3142.26
374.279	3158.7
372.391	3074.55
370.5	2932.22
368.611	3039.98
366.721	3015.44
364.83	2975.03
362.939	2908.21
361.047	2918.07
359.154	2970.21
357.262	2952.31
355.369	2894.8
353.477	2886.17
351.582	2914.51
349.688	2946.78
347.793	2955.3
345.896	2929.51
344.002	2860.22
342.105	3028.27
340.209	2922.08
338.311	2901.6
336.414	2791.54
334.516	2880.41
332.617	2970.56
330.717	2911.91
328.818	2874.34
326.918	2930.21
325.018	2974.21
323.117	2903.77
321.215	2871.5
319.312	2812.96
317.41	2780.72
315.508	2822.07
313.604	2791.17
311.701	2764.21
309.797	2733.33
307.891	2844.22
305.986	2791.02
304.08	2727.36
302.174	2612.58
300.268	2621.11
298.361	2759.41
296.453	2739.07
294.545	2680.73
292.637	2689.24
290.727	2742.26
288.818	2721.94
286.908	2750.05
284.998	2719.27
283.086	2654.48
281.176	2700.91
279.264	2743.38
277.352	2653.8
275.438	2670.12
273.525	2691.67
271.611	2685.77
269.697	2722.97
267.781	2685.73
265.867	2635.45
263.951	2679.16
262.035	2641.95
260.119	2653.03
258.201	2696.69
256.283	2563.04
254.365	2636.68
252.447	2667.29
250.527	2643.17
248.607	2543.52
246.688	2683.5
244.768	2677.61
242.846	2549.4
240.926	2542.25
239.002	2566.32
237.08	2652.79
235.158	2549.41
233.234	2564.36
231.311	2605.29
229.385	2646.2
227.461	2663.71
225.535	2713.67
223.609	2593.55
221.684	2578.62
219.756	2632.45
217.828	2647.34
215.9	2702.43
213.973	2612.28
212.043	2539.03
210.113	2603.17
208.184	2608.98
206.254	2608.31
204.322	2544.2
202.391	2542.25
200.459	2659.36
198.527	2604.34
196.594	2549.34
194.66	2522.82
192.727	2582.93
190.793	2648.18
188.857	2708.23
186.922	2622.27
184.986	2608.68
183.051	2672.56
181.113	2664.12
179.176	2598.91
177.238	2671.77
175.301	2784.58
173.361	2751.62
171.422	2692.9
169.482	2715.39
167.541	2728.86
165.602	2805.43
163.66	2799.55
161.717	2735.74
159.775	2789.08
157.832	2808.94
155.889	2936.84
153.945	2798.47
152	2809.31
150.055	2764.87
148.109	2861.81
146.164	2900.88
144.217	2874.43
142.27	2842.86
140.322	2951.23
138.375	2918.37
136.426	2944.54
134.477	2851.41
132.527	2859.63
130.578	2975.54
128.627	3052.94
126.676	2954.75
124.725	2932.19
122.771	3068.44
120.82	3045.86
118.867	3121.85
116.912	2998.18
114.959	3109.96
113.004	3056.7
111.049	3229.77
109.094	3131.76
107.137	3176.94
105.18	3227.19
103.223	3184.18
101.266	3276.54
99.3066	3108.44
97.3477	3313.08
95.3887	3437.22
93.4277	3400.59
91.4668	3346.12
89.5059	3303.15
87.5449	3334.12
85.582	3365.08
83.6211	3480.09
81.6562	3423.12
79.6934	3419.65
77.7285	3544.73
75.7637	3643.02
73.7988	3578.43
71.834	3558.39
69.8672	3659.14
67.9004	3715.34
65.9336	3683.84
63.9648	3548.17
61.9961	3375.75
60.0273	2954.57
58.0586	2378.75
56.0879	1670
54.1172	1072.01
52.1465	720.397
50.1738	472.948
48.2031	266.198
46.2305	145.735
44.2559	121.624
42.2832	48.1296
40.3086	56.9799