File: PeakFitting/xrdData/jacobson_raman/FTO2_532nm_5sec_5per_50x.txt
#Wave		#Intensity
1818.91	1963.83
1817.34	2123.49
1815.78	2084.77
1814.21	2132.25
1812.64	2005.79
1811.07	1989.45
1809.51	2003.42
1807.94	2052.48
1806.37	2109.48
1804.8	2026.18
1803.23	2017.82
1801.67	2030.18
1800.1	2058.47
1798.53	2058.07
1796.96	2081.56
1795.39	2057.27
1793.82	2074.39
1792.25	2062.84
1790.68	2162.7
1789.1	2062.04
1787.53	2126.87
1785.96	1983.31
1784.39	1965.43
1782.82	2071.57
1781.24	2064.81
1779.67	2123.2
1778.1	2108.49
1776.52	2058.83
1774.95	2039.37
1773.38	2072.32
1771.8	2059.21
1770.22	2123.89
1768.65	2001.27
1767.07	1972.31
1765.5	2086.14
1763.92	2107.94
1762.35	2036.16
1760.77	2099.18
1759.19	2062.31
1757.62	1998.5
1756.04	2094.77
1754.46	2135.54
1752.88	2144.62
1751.3	2109.36
1749.72	2069.36
1748.14	2046.78
1746.56	2089.11
1744.98	2023.82
1743.4	2181.61
1741.82	2070.46
1740.24	2062.14
1738.66	2128.13
1737.08	2058.15
1735.5	2111.48
1733.92	2039.95
1732.33	2004.78
1730.75	2037.55
1729.17	2057.67
1727.58	2175.67
1726	2072.63
1724.42	1977.52
1722.83	2022.88
1721.25	2027.21
1719.66	1963.71
1718.08	2143.08
1716.49	2087.47
1714.9	2009.81
1713.32	2042.5
1711.73	1990.09
1710.14	2074.75
1708.56	2115.28
1706.97	2047.14
1705.38	2013.66
1703.79	2041.59
1702.21	1992.39
1700.62	2028.17
1699.03	2004.16
1697.44	1978.59
1695.85	1931.01
1694.26	1935.33
1692.67	1996.24
1691.08	1970.69
1689.49	1987.57
1687.89	1946.32
1686.3	1890.95
1684.71	1829.32
1683.12	2012.63
1681.53	2032.62
1679.93	1977.28
1678.34	1914.11
1676.74	1896.46
1675.15	1914.89
1673.56	1972.51
1671.96	1942.32
1670.37	1885.5
1668.77	1855.34
1667.18	1919.19
1665.58	1865.53
1663.98	2001.39
1662.39	1856.93
1660.79	1936.39
1659.19	1853.04
1657.59	1898.03
1656	1933.62
1654.4	1916.01
1652.8	1903.1
1651.2	1984.01
1649.6	1886.68
1648	1865.97
1646.4	1942.15
1644.8	1896.44
1643.2	1919.47
1641.6	1883.16
1640	1834.37
1638.4	1933.88
1636.79	1944.4
1635.19	1892.51
1633.59	1803.2
1631.98	1844.93
1630.38	1897.55
1628.78	1922.1
1627.17	1817.27
1625.57	1813.78
1623.96	1858.57
1622.36	1912.7
1620.75	1887.38
1619.15	1911.9
1617.54	1902.15
1615.94	1851.95
1614.33	1859.34
1612.72	1835.62
1611.12	1914.55
1609.51	1925.03
1607.9	1870.21
1606.29	1801.43
1604.68	1824.36
1603.07	1926.51
1601.46	1826.69
1599.85	1879.11
1598.24	1787.1
1596.63	1744.81
1595.02	1780.14
1593.41	1824.76
1591.8	1866.26
1590.19	1847.25
1588.58	1742.96
1586.96	1823.21
1585.35	1827.47
1583.74	1848.78
1582.12	1862.33
1580.51	1795.33
1578.89	1776.36
1577.28	1875.08
1575.67	1877.78
1574.05	1832.49
1572.44	1900.19
1570.82	1814.69
1569.2	1811.21
1567.59	1801.55
1565.97	1813.53
1564.35	1743.58
1562.73	1822.03
1561.12	1795.37
1559.5	1798.08
1557.88	1834.76
1556.26	1868.33
1554.64	1823.16
1553.02	1757.95
1551.4	1834.73
1549.78	1875.99
1548.16	1934.2
1546.54	1889.06
1544.92	1785.36
1543.29	1747.98
1541.67	1790.75
1540.05	1922.87
1538.43	1876.24
1536.8	1834.26
1535.18	1781.51
1533.55	1819.61
1531.93	1885.4
1530.31	1903.46
1528.68	1859.97
1527.06	1779.59
1525.43	1825.34
1523.8	1861.84
1522.18	1876.81
1520.55	1924.05
1518.92	1882.15
1517.3	1780.35
1515.67	1778.43
1514.04	1868.64
1512.41	1877.45
1510.78	1867.83
1509.15	1799.91
1507.52	1817.93
1505.89	1845.14
1504.26	1941.35
1502.63	1887.27
1501	1831.68
1499.37	1842.01
1497.74	1818.62
1496.11	1864.18
1494.47	1802.52
1492.84	1834.28
1491.21	1784.9
1489.57	1753.9
1487.94	1738.21
1486.31	1802.09
1484.67	1832.28
1483.04	1770.72
1481.4	1747.4
1479.77	1820.39
1478.13	1815.4
1476.49	1862.37
1474.86	1810.03
1473.22	1730.22
1471.58	1670.3
1469.95	1749.31
1468.31	1777.92
1466.67	1772.96
1465.03	1795.45
1463.39	1778.28
1461.75	1761.12
1460.11	1838.48
1458.47	1804.55
1456.83	1727.96
1455.19	1745.87
1453.55	1765.28
1451.91	1732.92
1450.26	1740.15
1448.62	1840.23
1446.98	1737.86
1445.34	1720.75
1443.69	1782.73
1442.05	1806.67
1440.4	1853.41
1438.76	1764.84
1437.11	1671.74
1435.47	1739.75
1433.82	1845.7
1432.18	1845.3
1430.53	1749.23
1428.88	1754.92
1427.24	1742.39
1425.59	1798.15
1423.94	1797.75
1422.29	1763.99
1420.64	1733.27
1419	1696.5
1417.35	1718.86
1415.7	1788.19
1414.05	1822.65
1412.4	1775.29
1410.74	1774.89
1409.09	1782.07
1407.44	1745.35
1405.79	1828.2
1404.14	1789.97
1402.48	1700.32
1400.83	1748.34
1399.18	1788.78
1397.53	1798.97
1395.87	1783.46
1394.22	1793.64
1392.56	1695.04
1390.91	1726.39
1389.25	1777.35
1387.6	1776.95
1385.94	1805.24
1384.28	1675.06
1382.62	1721.46
1380.97	1736.16
1379.31	1797.6
1377.65	1777.6
1375.99	1722.94
1374.33	1737.63
1372.68	1722.18
1371.02	1825.74
1369.36	1692.8
1367.7	1724.04
1366.04	1726.67
1364.37	1601.37
1362.71	1739.44
1361.05	1814.28
1359.39	1801.84
1357.72	1703.7
1356.06	1659.72
1354.4	1705.95
1352.74	1773.19
1351.07	1831.39
1349.41	1656.74
1347.74	1651.87
1346.08	1743.08
1344.41	1783.22
1342.75	1710.79
1341.08	1699.91
1339.41	1686.03
1337.75	1751.64
1336.08	1752.75
1334.41	1602.46
1332.74	1692.02
1331.07	1750.08
1329.41	1692.76
1327.74	1690.89
1326.07	1736.93
1324.4	1747.02
1322.73	1740.64
1321.05	1660.95
1319.38	1686.01
1317.71	1714.05
1316.04	1745.07
1314.37	1732.72
1312.7	1709.91
1311.02	1685.62
1309.35	1765.92
1307.68	1719.22
1306	1817.4
1304.33	1693.07
1302.65	1673.29
1300.98	1723.65
1299.3	1754.6
1297.62	1766.14
1295.95	1761.27
1294.27	1678.87
1292.6	1739.61
1290.92	1733.26
1289.24	1726.91
1287.56	1772.7
1285.88	1721.67
1284.21	1625.99
1282.53	1707.5
1280.85	1784.51
1279.17	1726.08
1277.48	1689.99
1275.8	1619.7
1274.12	1693.69
1272.44	1731.96
1270.76	1761.3
1269.08	1689.58
1267.39	1659.49
1265.71	1656.14
1264.03	1691.41
1262.34	1702.91
1260.66	1736.67
1258.97	1709.56
1257.29	1673.57
1255.6	1649.46
1253.92	1763.28
1252.23	1748.06
1250.54	1669.1
1248.86	1670.21
1247.17	1647.61
1245.48	1724.27
1243.79	1655.76
1242.11	1661.31
1240.42	1623.92
1238.73	1665
1237.04	1729.73
1235.35	1739.7
1233.66	1663.88
1231.97	1688.64
1230.28	1691.22
1228.59	1683.45
1226.89	1739.22
1225.2	1682.69
1223.51	1717.76
1221.82	1664.21
1220.12	1709.6
1218.43	1772.69
1216.73	1725.07
1215.04	1718.78
1213.35	1654.96
1211.65	1706.2
1209.96	1717.61
1208.26	1718.7
1206.56	1656.42
1204.87	1692.88
1203.17	1701.34
1201.47	1718.63
1199.77	1774.19
1198.07	1794.4
1196.38	1649.77
1194.68	1736.2
1192.98	1735.81
1191.28	1767.78
1189.58	1726.21
1187.88	1789.03
1186.18	1682.81
1184.47	1750.02
1182.77	1751.09
1181.07	1727.2
1179.37	1700.38
1177.66	1730.83
1175.96	1705.48
1174.26	1791.67
1172.55	1756.06
1170.85	1752.73
1169.14	1797.79
1167.44	1763.67
1165.73	1742.75
1164.03	1776.06
1162.32	1829.87
1160.61	1745.96
1158.91	1729.46
1157.2	1784.71
1155.49	1842.85
1153.78	1745.85
1152.07	1779.11
1150.37	1739.21
1148.66	1753.44
1146.95	1815.92
1145.24	1831.59
1143.53	1848.71
1141.81	1845.37
1140.1	1831.81
1138.39	1883.97
1136.68	1794.47
1134.96	1881.66
1133.25	1838.91
1131.54	1896.86
1129.83	1983.95
1128.11	1898.92
1126.4	1886.82
1124.68	1803.3
1122.97	1903.46
1121.25	1943.83
1119.54	1963.78
1117.82	1976.45
1116.1	1888.63
1114.38	1879.47
1112.67	1896.51
1110.95	1948.47
1109.23	1914.56
1107.51	1991.22
1105.79	1963.14
1104.07	1977.23
1102.35	2064
1100.63	2021.39
1098.91	2002.04
1097.19	2017.57
1095.47	2046.16
1093.75	2081.99
1092.03	2039.42
1090.3	2005.58
1088.58	1957.25
1086.86	2059.8
1085.13	2144.9
1083.41	2019.72
1081.68	2116.38
1079.96	2139.09
1078.23	2031.39
1076.51	2196.07
1074.78	2137.64
1073.05	2047.38
1071.33	2033.89
1069.6	2139.08
1067.87	2158.85
1066.14	2154.02
1064.41	2160.77
1062.69	2056.17
1060.96	2122.2
1059.23	2147.74
1057.5	2144.36
1055.77	2206
1054.04	2066.84
1052.3	2183.34
1050.57	2184.28
1048.84	2182.35
1047.11	2206.38
1045.38	2109.22
1043.64	2172.21
1041.91	2122.69
1040.17	2200.06
1038.44	2190.91
1036.71	2201.94
1034.97	2162.54
1033.23	2162.05
1031.5	2180.28
1029.76	2127.96
1028.03	2141.87
1026.29	2062.23
1024.55	2127.95
1022.81	2098.7
1021.07	2141.37
1019.33	2043.11
1017.6	2075.71
1015.86	2020.63
1014.12	2092.01
1012.38	2006.78
1010.63	2111.17
1008.89	1954.18
1007.15	2035.56
1005.41	2073.85
1003.67	2074.81
1001.93	1949.54
1000.18	1993.56
998.439	2049.03
996.695	1996.95
994.951	1985.03
993.205	1937.3
991.461	1839.44
989.715	1907.77
987.969	1841.47
986.223	1859.66
984.477	1893.59
982.729	1848.8
980.982	1848.38
979.234	1948.08
977.486	1870.42
975.736	1791.37
973.988	1823.83
972.238	1866.29
970.488	1791.58
968.738	1844.02
966.988	1775.05
965.236	1764.66
963.484	1747.13
961.734	1798.1
959.98	1834.79
958.229	1761.63
956.475	1718.44
954.723	1746.57
952.969	1786.08
951.215	1767.15
949.459	1733.98
947.705	1696.55
945.949	1721.8
944.193	1742.76
942.438	1762.3
940.68	1743.4
938.924	1643.4
937.166	1738.33
935.408	1683.9
933.65	1719.06
931.891	1680.29
930.133	1635.85
928.373	1632.63
926.613	1640.78
924.854	1660.3
923.092	1644.3
921.33	1597.08
919.57	1646.39
917.809	1640.34
916.045	1597.41
914.283	1625.41
912.52	1576.83
910.756	1550.95
908.992	1635.64
907.229	1538.91
905.463	1573.98
903.699	1535.37
901.934	1577.51
900.168	1596.97
898.4	1605.1
896.635	1589.17
894.867	1491.18
893.1	1534.69
891.332	1552.73
889.564	1552.37
887.795	1547.78
886.025	1551.67
884.256	1566.85
882.486	1582.04
880.717	1608.51
878.945	1570.02
877.174	1494.85
875.402	1469.11
873.631	1487.11
871.859	1596.8
870.086	1558.36
868.312	1443.8
866.539	1506.9
864.766	1509.38
862.992	1558.35
861.217	1504.46
859.441	1435.11
857.666	1471.39
855.891	1493.58
854.113	1505.91
852.338	1535.11
850.561	1468.65
848.783	1455.65
847.004	1497.5
845.227	1490.13
843.447	1541.8
841.668	1518.96
839.889	1416.06
838.109	1532.31
836.328	1543.2
834.547	1533.02
832.766	1484.95
830.984	1558.98
829.203	1543.19
827.42	1614.37
825.637	1577.54
823.854	1622.04
822.07	1576.82
820.287	1600.28
818.502	1612.53
816.717	1603.76
814.932	1606.19
813.146	1629.62
811.359	1706.23
809.574	1651.27
807.787	1692.86
806	1623.94
804.211	1692.09
802.424	1716.87
800.635	1723.46
798.846	1662.98
797.057	1686.35
795.268	1705.52
793.477	1730.27
791.686	1756.4
789.895	1756
788.104	1715.12
786.312	1692.41
784.52	1772.92
782.727	1733.47
780.934	1724.71
779.141	1791.22
777.346	1697.44
775.553	1777.86
773.758	1723.13
771.963	1754.77
770.166	1665.25
768.371	1659.3
766.574	1717.38
764.777	1762.9
762.98	1754.15
761.184	1681.43
759.385	1662.96
757.586	1682.04
755.787	1721.96
753.988	1675.72
752.189	1640.6
750.389	1631.89
748.588	1677.34
746.787	1703.33
744.986	1668.24
743.184	1602.64
741.383	1624.47
739.58	1611.62
737.777	1694.44
735.973	1639.99
734.17	1624.37
732.365	1642.01
730.561	1643.01
728.756	1699.42
726.951	1606.26
725.145	1568.51
723.338	1644.27
721.531	1703.4
719.725	1691.94
717.916	1607.18
716.109	1601.28
714.301	1667.27
712.492	1671.03
710.684	1658.21
708.873	1638.49
707.062	1553.86
705.252	1594.92
703.441	1663.59
701.631	1628.7
699.818	1657.3
698.006	1603.11
696.193	1615.16
694.381	1645.12
692.568	1607.52
690.754	1652.63
688.939	1626.07
687.125	1631.21
685.311	1696.94
683.494	1652.49
681.68	1619.06
679.863	1581.53
678.047	1594.92
676.229	1613.82
674.412	1620.32
672.594	1600.69
670.775	1546.7
668.957	1606.83
667.137	1660.05
665.318	1588.22
663.498	1637.31
661.678	1642.42
659.855	1614.58
658.035	1684.21
656.213	1627.56
654.391	1570.93
652.568	1641.89
650.744	1649.74
648.922	1678.15
647.098	1690.1
645.273	1667.78
643.449	1659.17
641.623	1727.28
639.799	1636.49
637.973	1652.54
636.146	1650.79
634.318	1669.57
632.492	1741.69
630.664	1741.29
628.836	1728.58
627.008	1711.77
625.178	1714.11
623.35	1750.61
621.52	1666.86
619.689	1662.37
617.859	1689.3
616.027	1686.17
614.195	1693.97
612.363	1641.72
610.531	1634.52
608.699	1646.41
606.865	1624.21
605.031	1715.18
603.197	1612.55
601.363	1526.32
599.529	1619.97
597.693	1637.3
595.857	1626.03
594.021	1564.38
592.186	1543.6
590.348	1571.81
588.51	1654.44
586.672	1662.22
584.834	1561.2
582.996	1573.07
581.156	1571.34
579.316	1622.61
577.477	1622.24
575.637	1506.4
573.795	1523.7
571.953	1608.88
570.111	1601.71
568.27	1601.34
566.428	1511.42
564.584	1509.71
562.74	1639.54
560.896	1625.6
559.053	1576.42
557.207	1605.87
555.361	1582.46
553.516	1601.05
551.67	1615.57
549.824	1559.68
547.977	1553.9
546.129	1623.91
544.281	1626.23
542.434	1627.2
540.584	1616
538.736	1556.13
536.887	1592.26
535.035	1648.64
533.186	1650.96
531.334	1637.06
529.482	1604.27
527.631	1671.39
525.779	1677.75
523.926	1620.68
522.074	1689.1
520.221	1638.8
518.365	1646.5
516.512	1710.82
514.656	1651.11
512.803	1670.94
510.945	1634.17
509.09	1705.17
507.232	1731.7
505.377	1689.55
503.52	1629.93
501.66	1653.77
499.803	1743.51
497.943	1730.99
496.084	1660.66
494.225	1675.05
492.365	1702.88
490.504	1807.29
488.645	1720.88
486.781	1743.31
484.92	1710.67
483.059	1776.04
481.195	1768.91
479.332	1784.59
477.469	1821.72
475.604	1744.85
473.74	1840.97
471.875	1883.43
470.01	1824.01
468.145	1769.98
466.277	1777.6
464.41	1858.87
462.543	1827.63
460.676	1760.26
458.809	1798.65
456.939	1869.14
455.07	1819.2
453.201	1845.51
451.332	1796.94
449.461	1788.49
447.59	1850.87
445.719	1897.19
443.848	1793.88
441.975	1753.39
440.104	1861.11
438.23	1823.29
436.355	1829.53
434.482	1821.08
432.607	1792.64
430.732	1840.21
428.857	1809.11
426.982	1807.34
425.105	1824.23
423.23	1795.81
421.354	1838
419.475	1838.89
417.598	1798.51
415.719	1787.43
413.84	1826.92
411.961	1823.82
410.08	1908.49
408.201	1775.07
406.32	1786.6
404.439	1808.76
402.557	1825.6
400.676	1822.5
398.793	1826.05
396.91	1791.08
395.027	1895.51
393.143	1897.71
391.258	1830.91
389.373	1789.35
387.488	1857.87
385.604	1858.75
383.717	1880.83
381.83	1833.99
379.943	1818.97
378.055	1890.05
376.168	1973.02
374.279	1870.6
372.391	1817.2
370.5	1798.23
368.611	1832.19
366.721	1743.13
364.83	1832.62
362.939	1807.06
361.047	1844.94
359.154	1914.52
357.262	1951.04
355.369	1829.06
353.477	1831.25
351.582	1861.17
349.688	1933.29
347.793	1955.24
345.896	1875.62
344.002	1888.35
342.105	1879.98
340.209	1882.15
338.311	1917.27
336.414	1837.75
334.516	1934.76
332.617	1977.74
330.717	1932.49
328.818	1897.8
326.918	1915.75
325.018	1921.86
323.117	1964.78
321.215	1931.43
319.312	1892.83
317.41	1875.28
315.508	1849.85
313.604	1921.64
311.701	1880.45
309.797	1813.03
307.891	1951.71
305.986	1896.11
304.08	1957.3
302.174	1840.09
300.268	1772.76
298.361	1853.59
296.453	1872.79
294.545	1798.95
292.637	1823.39
290.727	1801.98
288.818	1843.43
286.908	1895.32
284.998	1859.52
283.086	1827.66
281.176	1850.74
279.264	1932.66
277.352	1860.27
275.438	1816.68
273.525	1831.9
271.611	1854.96
269.697	1783.97
267.781	1851.41
265.867	1776.55
263.951	1828.3
262.035	1834.36
260.119	1865.2
258.201	1773.45
256.283	1771.7
254.365	1844.24
252.447	1835.96
250.527	1827.68
248.607	1759.5
246.688	1822.85
244.768	1774.23
242.846	1794.6
240.926	1768.12
239.002	1750.77
237.08	1816.64
235.158	1814.88
233.234	1755.93
231.311	1720.4
229.385	1692.68
227.461	1797.45
225.535	1773.62
223.609	1748.51
221.684	1759.74
219.756	1717.77
217.828	1769.22
215.9	1824.53
213.973	1732.01
212.043	1640.84
210.113	1758.34
208.184	1747.52
206.254	1692.68
204.322	1655.99
202.391	1728.06
200.459	1726.32
198.527	1753.04
196.594	1721.55
194.66	1666.8
192.727	1698.69
190.793	1749.95
188.857	1718.48
186.922	1659.91
184.986	1668.52
183.051	1728.77
181.113	1742.52
179.176	1734.33
177.238	1742.91
175.301	1783.73
173.361	1818.08
171.422	1737.68
169.482	1738.52
167.541	1750.95
165.602	1762.09
163.66	1720.42
161.717	1762.46
159.775	1743.98
157.832	1784.7
155.889	1808.67
153.945	1776.05
152	1675.3
150.055	1705.71
148.109	1729.68
146.164	1802.45
144.217	1772.44
142.27	1822.05
140.322	1826.71
138.375	1735.11
136.426	1774.42
134.477	1727.78
132.527	1778.62
130.578	1747.38
128.627	1764.86
126.676	1759.27
124.725	1898.43
122.771	1987.57
120.82	1972.96
118.867	1950.68
116.912	1823.48
114.959	1799.97
113.004	1860.88
111.049	1782.39
109.094	1835.6
107.137	1874.72
105.18	1866.56
103.223	1860.95
101.266	1887.27
99.3066	1839.53
97.3477	1828.83
95.3887	1892.13
93.4277	1957.95
91.4668	1933.2
89.5059	1814.12
87.5449	1864.61
85.582	1895.96
83.6211	1992.26
81.6562	1863.1
79.6934	1866.42
77.7285	1925.74
75.7637	2009.2
73.7988	1908.16
71.834	1924.17
69.8672	1988.5
67.9004	2001.94
65.9336	1884.49
63.9648	1848.4
61.9961	1717.09
60.0273	1529.98
58.0586	1155.1
56.0879	810.89
54.1172	544.251
52.1465	375.418
50.1738	257.395
48.2031	177.466
46.2305	120.39
44.2559	84.8834
42.2832	91.1929
40.3086	45.5839