File: PeakFitting/xrdData/jacobson_raman/FTO_532nm_5sec_5per_50x.txt
#Wave		#Intensity
1818.91	1435.35
1817.34	1473.67
1815.78	1372.82
1814.21	1412.46
1812.64	1432.93
1811.07	1346.51
1809.51	1422.81
1807.94	1438.49
1806.37	1455.75
1804.8	1421.99
1803.23	1396.22
1801.67	1427.82
1800.1	1443.48
1798.53	1454.35
1796.96	1447.7
1795.39	1418.76
1793.82	1388.23
1792.25	1389.56
1790.68	1347.91
1789.1	1404.93
1787.53	1407.84
1785.96	1436.19
1784.39	1380.25
1782.82	1430.86
1781.24	1436.94
1779.67	1441.43
1778.1	1425.26
1776.52	1385.26
1774.95	1364.34
1773.38	1429.18
1771.8	1436.84
1770.22	1404.81
1768.65	1437.86
1767.07	1397.91
1765.5	1435.71
1763.92	1419.57
1762.35	1466.86
1760.77	1490.35
1759.19	1440.92
1757.62	1401.01
1756.04	1475.21
1754.46	1467
1752.88	1439.78
1751.3	1458.5
1749.72	1386.96
1748.14	1399.35
1746.56	1462.38
1744.98	1457.34
1743.4	1422.24
1741.82	1363.44
1740.24	1459.63
1738.66	1418.23
1737.08	1433.75
1735.5	1446.11
1733.92	1433.18
1732.33	1426.57
1730.75	1421.55
1729.17	1421.26
1727.58	1417.82
1726	1431.74
1724.42	1418.83
1722.83	1361.74
1721.25	1388.28
1719.66	1455.82
1718.08	1487.07
1716.49	1406.36
1714.9	1415.53
1713.32	1401.06
1711.73	1440.17
1710.14	1403.65
1708.56	1357.69
1706.97	1370.01
1705.38	1410.67
1703.79	1350.56
1702.21	1347.14
1700.62	1375.19
1699.03	1326.14
1697.44	1344.75
1695.85	1305.16
1694.26	1370.92
1692.67	1343.92
1691.08	1346.79
1689.49	1387.37
1687.89	1333.67
1686.3	1389.94
1684.71	1325.28
1683.12	1328.14
1681.53	1331.01
1679.93	1343.29
1678.34	1297.52
1676.74	1292.54
1675.15	1347.17
1673.56	1343.76
1671.96	1337.21
1670.37	1297.75
1668.77	1270.84
1667.18	1267.45
1665.58	1426.95
1663.98	1395.34
1662.39	1318.33
1660.79	1299.27
1659.19	1252.05
1657.59	1300.3
1656	1248.4
1654.4	1306.02
1652.8	1330.76
1651.2	1328.92
1649.6	1286.44
1648	1300.24
1646.4	1323.41
1644.8	1365.31
1643.2	1321.3
1641.6	1267.93
1640	1353.53
1638.4	1336.08
1636.79	1365.45
1635.19	1313.68
1633.59	1311.84
1631.98	1289.73
1630.38	1292.58
1628.78	1307.9
1627.17	1338.8
1625.57	1274.63
1623.96	1297.73
1622.36	1232.04
1620.75	1309.64
1619.15	1276.67
1617.54	1248.39
1615.94	1254.35
1614.33	1213.63
1612.72	1295.82
1611.12	1276.88
1609.51	1335.7
1607.9	1262.35
1606.29	1176.6
1604.68	1236.96
1603.07	1263.11
1601.46	1334.29
1599.85	1271.89
1598.24	1262.31
1596.63	1217.02
1595.02	1269.53
1593.41	1244.44
1591.8	1295.37
1590.19	1245.46
1588.58	1218.83
1586.96	1254.23
1585.35	1241.57
1583.74	1264.55
1582.12	1267.38
1580.51	1206.7
1578.89	1223.47
1577.28	1272.76
1575.67	1267.85
1574.05	1238.17
1572.44	1206.96
1570.82	1222.17
1569.2	1226.55
1567.59	1221.65
1565.97	1289.41
1564.35	1287.59
1562.73	1216.23
1561.12	1265.41
1559.5	1252.78
1557.88	1325.1
1556.26	1241.44
1554.64	1268.96
1553.02	1196.15
1551.4	1214.41
1549.78	1274.31
1548.16	1269.41
1546.54	1262.97
1544.92	1210.28
1543.29	1245.47
1541.67	1183.56
1540.05	1258.8
1538.43	1247.75
1536.8	1247.48
1535.18	1241.05
1533.55	1246.94
1531.93	1317.47
1530.31	1309.49
1528.68	1304.6
1527.06	1279.71
1525.43	1236.37
1523.8	1228.42
1522.18	1329.6
1520.55	1353.9
1518.92	1258.35
1517.3	1235.03
1515.67	1208.66
1514.04	1291.31
1512.41	1298.71
1510.78	1221.69
1509.15	1268.99
1507.52	1245.7
1505.89	1191.75
1504.26	1297.3
1502.63	1313.88
1501	1256.88
1499.37	1258.14
1497.74	1234.89
1496.11	1200.92
1494.47	1329.3
1492.84	1234.08
1491.21	1220.04
1489.57	1247.32
1487.94	1247.05
1486.31	1210.06
1484.67	1225.09
1483.04	1203.42
1481.4	1213.86
1479.77	1233.46
1478.13	1207.21
1476.49	1193.2
1474.86	1243.34
1473.22	1178.93
1471.58	1186.31
1469.95	1178.42
1468.31	1245.31
1466.67	1240.46
1465.03	1134.93
1463.39	1210.94
1461.75	1215.25
1460.11	1196.69
1458.47	1216.24
1456.83	1205.31
1455.19	1166.96
1453.55	1149.95
1451.91	1212.13
1450.26	1204.25
1448.62	1176.59
1446.98	1164.16
1445.34	1133.47
1443.69	1200.15
1442.05	1289.61
1440.4	1187.46
1438.76	1202.4
1437.11	1180.86
1435.47	1183.64
1433.82	1253.26
1432.18	1201.34
1430.53	1223.85
1428.88	1193.22
1427.24	1236.97
1425.59	1201.8
1423.94	1210.64
1422.29	1198.24
1420.64	1172.19
1419	1120.39
1417.35	1200.48
1415.7	1210.82
1414.05	1165.1
1412.4	1217.86
1410.74	1194.87
1409.09	1202.18
1407.44	1201.91
1405.79	1228.89
1404.14	1190.79
1402.48	1143.63
1400.83	1161.53
1399.18	1159.76
1397.53	1207.88
1395.87	1201.57
1394.22	1175.61
1392.56	1158.73
1390.91	1184.15
1389.25	1182.38
1387.6	1201.74
1385.94	1124.5
1384.28	1139.34
1382.62	1136.07
1380.97	1138.84
1379.31	1188.35
1377.65	1188.08
1375.99	1147.12
1374.33	1181.53
1372.68	1167.71
1371.02	1135.81
1369.36	1189.78
1367.7	1249.74
1366.04	1166.67
1364.37	1131.79
1362.71	1217.31
1361.05	1171.91
1359.39	1134.05
1357.72	1139.81
1356.06	1145.57
1354.4	1197.92
1352.74	1199.16
1351.07	1155.32
1349.41	1146.05
1347.74	1106.75
1346.08	1092.99
1344.41	1206.83
1342.75	1193.05
1341.08	1155.28
1339.41	1107.02
1337.75	1135.27
1336.08	1156
1334.41	1190.22
1332.74	1106.03
1331.07	1146.24
1329.41	1135.5
1327.74	1151.72
1326.07	1136.49
1324.4	1199.11
1322.73	1149.45
1321.05	1129.74
1319.38	1132.48
1317.71	1227.95
1316.04	1158.89
1314.37	1173.58
1312.7	1138.94
1311.02	1164.09
1309.35	1192.22
1307.68	1166.56
1306	1172.27
1304.33	1148.12
1302.65	1171.75
1300.98	1172.98
1299.3	1168.24
1297.62	1191.84
1295.95	1161.75
1294.27	1134.65
1292.6	1155.27
1290.92	1146.07
1289.24	1124.95
1287.56	1173.86
1285.88	1137.85
1284.21	1158.44
1282.53	1119.48
1280.85	1180.25
1279.17	1135.34
1277.48	1097.9
1275.8	1091.7
1274.12	1139.04
1272.44	1137.3
1270.76	1138.53
1269.08	1135.3
1267.39	1123.16
1265.71	1097.66
1264.03	1153.84
1262.34	1120.92
1260.66	1129.57
1258.97	1132.29
1257.29	1120.17
1255.6	1090.25
1253.92	1164.15
1252.23	1181.68
1250.54	1162.15
1248.86	1071.48
1247.17	1130.51
1245.48	1084.33
1243.79	1150.74
1242.11	1150.48
1240.42	1133.93
1238.73	1099.64
1237.04	1192.61
1235.35	1147.96
1233.66	1171.37
1231.97	1074.99
1230.28	1163.45
1228.59	1105.55
1226.89	1128.94
1225.2	1119.82
1223.51	1132.86
1221.82	1070.59
1220.12	1102.83
1218.43	1182.28
1216.73	1156.93
1215.04	1146.34
1213.35	1163.78
1211.65	1134.03
1209.96	1108.71
1208.26	1227.85
1206.56	1128.84
1204.87	1166.89
1203.17	1194.62
1201.47	1217.91
1199.77	1199.97
1198.07	1158.48
1196.38	1137.62
1194.68	1178.56
1192.98	1226.84
1191.28	1135.38
1189.58	1168.94
1187.88	1174.56
1186.18	1158.13
1184.47	1200.48
1182.77	1207.55
1181.07	1213.15
1179.37	1177.64
1177.66	1209.67
1175.96	1187.38
1174.26	1214.99
1172.55	1198.58
1170.85	1190.98
1169.14	1177.51
1167.44	1237.35
1165.73	1215.09
1164.03	1229.47
1162.32	1194.03
1160.61	1164.46
1158.91	1263.78
1157.2	1273.74
1155.49	1238.33
1153.78	1189.75
1152.07	1188.02
1150.37	1187.75
1148.66	1272.31
1146.95	1232.54
1145.24	1205.95
1143.53	1195.45
1141.81	1256.55
1140.1	1222.66
1138.39	1293.95
1136.68	1293.66
1134.96	1281.69
1133.25	1241.99
1131.54	1302.99
1129.83	1328.96
1128.11	1295.11
1126.4	1268.57
1124.68	1252.25
1122.97	1288.4
1121.25	1315.8
1119.54	1296.56
1117.82	1350.16
1116.1	1316.36
1114.38	1339.36
1112.67	1359.43
1110.95	1373.68
1109.23	1403.92
1107.51	1351.24
1105.79	1356.75
1104.07	1426.23
1102.35	1418.64
1100.63	1396.52
1098.91	1339.54
1097.19	1403.15
1095.47	1444.94
1093.75	1372.02
1092.03	1441.39
1090.3	1426.55
1088.58	1371.09
1086.86	1425.9
1085.13	1486.49
1083.41	1445.56
1081.68	1437.98
1079.96	1398.53
1078.23	1448.92
1076.51	1512.33
1074.78	1471.44
1073.05	1488.48
1071.33	1459.19
1069.6	1455.96
1067.87	1517.85
1066.14	1445.18
1064.41	1457.87
1062.69	1456.09
1060.96	1460.1
1059.23	1490.12
1057.5	1543.25
1055.77	1532.78
1054.04	1503.55
1052.3	1546.53
1050.57	1502.87
1048.84	1600.68
1047.11	1564.24
1045.38	1465.78
1043.64	1494.29
1041.91	1542.99
1040.17	1525.34
1038.44	1523.55
1036.71	1507.35
1034.97	1453.7
1033.23	1536.92
1031.5	1584.09
1029.76	1432.56
1028.03	1430.79
1026.29	1512.5
1024.55	1493.45
1022.81	1451.4
1021.07	1478.39
1019.33	1492.43
1017.6	1431.72
1015.86	1441.46
1014.12	1438.26
1012.38	1412.07
1010.63	1431.86
1008.89	1385.59
1007.15	1416.85
1005.41	1432.32
1003.67	1354.51
1001.93	1332.69
1000.18	1339.56
998.439	1375.1
996.695	1391.99
994.951	1375.91
993.205	1293.92
991.461	1305.09
989.715	1281.87
987.969	1317.38
986.223	1268.41
984.477	1305.33
982.729	1317.92
980.982	1283.28
979.234	1314.46
977.486	1322.74
975.736	1173.75
973.988	1234.95
972.238	1241.81
970.488	1227.24
968.738	1209.82
966.988	1220.97
965.236	1214.99
963.484	1276.09
961.734	1250.11
959.98	1227
958.229	1239.56
956.475	1217.88
954.723	1196.22
952.969	1157.46
951.215	1195.68
949.459	1218.2
947.705	1162.37
945.949	1206.26
944.193	1235.88
942.438	1175.81
940.68	1182.66
938.924	1168.16
937.166	1163.63
935.408	1136.35
933.65	1170.21
931.891	1151.47
930.133	1082.98
928.373	1088.42
926.613	1129.37
924.854	1096.45
923.092	1121.76
921.33	1093.11
919.57	1081.51
917.809	1050.04
916.045	1089.53
914.283	1113.39
912.52	999.697
910.756	1005.14
908.992	1105.54
907.229	1101.04
905.463	1102.21
903.699	1063.71
901.934	1066.3
900.168	1025
898.4	1044.59
896.635	1011.8
894.867	986.106
893.1	990.125
891.332	996.97
889.564	1044.81
887.795	1038.92
886.025	1035.86
884.256	998.888
882.486	993.01
880.717	1012.55
878.945	1025.03
877.174	986.685
875.402	983.638
873.631	1011.63
871.859	1004.35
870.086	1056.3
868.312	1001.07
866.539	959.964
864.766	1013.3
862.992	991.933
861.217	1012.84
859.441	959.089
857.666	1040.54
855.891	982.582
854.113	982.358
852.338	927.259
850.561	984.724
848.783	929.648
847.004	956.152
845.227	1031.85
843.447	997.88
841.668	1021.54
839.889	959.495
838.109	1054.78
836.328	1029.27
834.547	1113.26
832.766	962.83
830.984	1056.63
829.203	1024.12
827.42	1115.05
825.637	995.605
823.854	1010.8
822.07	1065.23
820.287	1027.15
818.502	1088.56
816.717	1170.95
814.932	1124.47
813.146	1134.02
811.359	1153.35
809.574	1154.49
807.787	1144.43
806	1113.4
804.211	1135.52
802.424	1131.06
800.635	1155.96
798.846	1235.36
797.057	1137.27
795.268	1149.58
793.477	1177.25
791.686	1178.38
789.895	1162.75
788.104	1168.07
786.312	1146.87
784.52	1120.11
782.727	1158.9
780.934	1122.38
779.141	1182.07
777.346	1188.77
775.553	1188.49
773.758	1209.12
771.963	1125.28
770.166	1173.75
768.371	1109.45
766.574	1128.68
764.777	1172.95
762.98	1085.04
761.184	1091.74
759.385	1115.13
757.586	1077.34
755.787	1122.96
753.988	1046.28
752.189	1084.94
750.389	1090.24
748.588	1109.43
746.787	1091.13
744.986	1075.61
743.184	1090.63
741.383	1075.12
739.58	1058.23
737.777	1098.2
735.973	1095.17
734.17	1068.59
732.365	1075.27
730.561	1127.67
728.756	1083.09
726.951	1064.84
725.145	1041.06
723.338	1067.12
721.531	1095.93
719.725	1126.11
717.916	1082.98
716.109	1070.28
714.301	1075.57
712.492	1091.91
710.684	1069.55
708.873	1103.84
707.062	1074.58
705.252	1046.71
703.441	1101.69
701.631	1079.36
699.818	1057.03
698.006	1045.75
696.193	1095.16
694.381	1045.27
692.568	1035.37
690.754	1032.38
688.939	1033.52
687.125	1070.48
685.311	1117.06
683.494	1067.23
681.68	1061.48
679.863	1000.67
678.047	1051.36
676.229	982.322
674.412	1059.12
672.594	990.12
670.775	1025.64
668.957	1036.4
667.137	1041.65
665.318	1093.62
663.498	1032.93
661.678	1023.08
659.855	1112.08
658.035	1054.18
656.213	1007.27
654.391	1082.5
652.568	1023.27
650.744	1069.66
648.922	1091.35
647.098	1100.69
645.273	988.06
643.449	1064.56
641.623	1090.33
639.799	1072.28
637.973	1063.82
636.146	1059.46
634.318	1053.74
632.492	1120.54
630.664	1103.87
628.836	1050.27
627.008	1108.82
625.178	1067.56
623.35	1116.51
621.52	1091.65
619.689	1057.25
617.859	1072.03
616.027	1048.57
614.195	1031.94
612.363	1053.54
610.531	1036.92
608.699	1059.87
606.865	1071.9
605.031	1071.65
603.197	1056.4
601.363	1031.63
599.529	1073.62
597.693	1017.52
595.857	1058.14
594.021	1022.5
592.186	1029.06
590.348	1034.27
588.51	1029.94
586.672	1006.58
584.834	1038.98
582.996	1011.55
581.156	1016.75
579.316	1009.72
577.477	1023.07
575.637	1016.04
573.795	1021.23
571.953	1086.16
570.111	1046.54
568.27	1036.8
566.428	1012.14
564.584	972.562
562.74	1067.26
560.896	1054.81
559.053	965.101
557.207	1046.18
555.361	1035.1
553.516	1041.63
551.67	1107.74
549.824	1088.53
547.977	1007.06
546.129	1014.94
544.281	1082.35
542.434	1050.99
540.584	1092.66
538.736	1030.21
536.887	1069.17
535.035	1097.29
533.186	1060.56
531.334	1098.13
529.482	1038.45
527.631	1071.96
525.779	1089.25
523.926	1084.95
522.074	1069.85
520.221	1073.65
518.365	1070.7
516.512	1167.51
514.656	1054.02
512.803	1095.54
510.945	1173.42
509.09	1216.24
507.232	1136.51
505.377	1085.08
503.52	1056.56
501.66	1127.63
499.803	1158.3
497.943	1117.68
496.084	1099.94
494.225	1106.4
492.365	1161.24
490.504	1182.46
488.645	1202.33
486.781	1168.47
484.92	1168.19
483.059	1208.19
481.195	1246.82
479.332	1200.91
477.469	1172.45
475.604	1240.57
473.74	1226.87
471.875	1277.51
470.01	1169.99
468.145	1234.03
466.277	1214.98
464.41	1242.82
462.543	1306.79
460.676	1181.99
458.809	1205.79
456.939	1246.98
455.07	1274.78
453.201	1257.09
451.332	1280.85
449.461	1269.85
447.59	1265.54
445.719	1262.56
443.848	1227.53
441.975	1203.2
440.104	1284.35
438.23	1230.66
436.355	1317.1
434.482	1212.72
432.607	1239.11
430.732	1260.14
428.857	1299.84
426.982	1252.88
425.105	1216.6
423.23	1246.94
421.354	1230.66
419.475	1239.69
417.598	1222.08
415.719	1224.45
413.84	1210.85
411.961	1254.45
410.08	1243.51
408.201	1220.61
406.32	1280.13
404.439	1314.38
402.557	1312.73
400.676	1273.89
398.793	1243.04
396.91	1279.91
395.027	1266.33
393.143	1311.14
391.258	1253.78
389.373	1283.98
387.488	1316.82
385.604	1262.14
383.717	1325.46
381.83	1236.35
379.943	1318.19
378.055	1308.6
376.168	1338.74
374.279	1338.41
372.391	1269.26
370.5	1249.1
368.611	1308.33
366.721	1317.27
364.83	1286.54
362.939	1341.74
361.047	1295.16
359.154	1309.38
357.262	1327.55
355.369	1278.36
353.477	1238.44
351.582	1301.5
349.688	1385.63
347.793	1358.91
345.896	1312.41
344.002	1347.69
342.105	1328.9
340.209	1369.44
338.311	1353.29
336.414	1308.16
334.516	1326.28
332.617	1374.67
330.717	1378.28
328.818	1335.83
326.918	1326.29
325.018	1411.47
323.117	1384.82
321.215	1331.88
319.312	1319.72
317.41	1339.11
315.508	1315.13
313.604	1331.88
311.701	1297.41
309.797	1276.08
307.891	1361.08
305.986	1331.87
304.08	1284.31
302.174	1319.41
300.268	1303.34
298.361	1306.95
296.453	1340.7
294.545	1291.89
292.637	1198.56
290.727	1263.74
288.818	1275.21
286.908	1303.69
284.998	1281.12
283.086	1286.03
281.176	1334.1
279.264	1348.15
277.352	1326.9
275.438	1225.93
273.525	1285.73
271.611	1311.53
269.697	1302.06
267.781	1249.51
265.867	1232.23
263.951	1290.64
262.035	1291.62
260.119	1280.86
258.201	1238.81
256.283	1186.35
254.365	1302.05
252.447	1232.66
250.527	1204.99
248.607	1234.64
246.688	1236.93
244.768	1252.24
242.846	1208.98
240.926	1228.19
239.002	1238.28
237.08	1222.36
235.158	1250.66
233.234	1212.65
231.311	1201.94
229.385	1209.43
227.461	1319.52
225.535	1268.54
223.609	1235.77
221.684	1249.73
219.756	1188.43
217.828	1202.39
215.9	1279.89
213.973	1231.6
212.043	1218.32
210.113	1223.19
208.184	1209.92
206.254	1200.55
204.322	1245.56
202.391	1174.04
200.459	1212.56
198.527	1247.18
196.594	1175.72
194.66	1199.99
192.727	1150.56
190.793	1220.05
188.857	1228.78
186.922	1165.17
184.986	1144.2
183.051	1221.37
181.113	1169.43
179.176	1196.22
177.238	1198.49
175.301	1244.61
173.361	1181.11
171.422	1285.22
169.482	1185.65
167.541	1225.28
165.602	1217.23
163.66	1251.68
161.717	1235.91
159.775	1193.11
157.832	1245.56
155.889	1223.36
153.945	1217.9
152	1171.29
150.055	1258.39
148.109	1258.06
146.164	1235.89
144.217	1233
142.27	1239.1
140.322	1202.83
138.375	1265.4
136.426	1232.99
134.477	1224.96
132.527	1259.27
130.578	1252.52
128.627	1298.33
126.676	1283.89
124.725	1302.77
122.771	1348.53
120.82	1366.09
118.867	1303.01
116.912	1254.04
114.959	1290.81
113.004	1300.69
111.049	1296.51
109.094	1270.6
107.137	1326.49
105.18	1313.36
103.223	1301.52
101.266	1343.31
99.3066	1230.61
97.3477	1288.99
95.3887	1353.71
93.4277	1335.49
91.4668	1352.98
89.5059	1273.58
87.5449	1317.84
85.582	1331.51
83.6211	1354.08
81.6562	1335.88
79.6934	1329.16
77.7285	1370.8
75.7637	1440.41
73.7988	1333.17
71.834	1322.63
69.8672	1375.67
67.9004	1368.94
65.9336	1390.17
63.9648	1219.57
61.9961	1178.59
60.0273	1023.37
58.0586	827.612
56.0879	559.628
54.1172	402.162
52.1465	268.881
50.1738	197.801
48.2031	133.099
46.2305	81.1049
44.2559	81.0826
42.2832	53.1959
40.3086	59.5124