File: PeakFitting/xrdData/jacobson_raman/FTOback_532nm_5sec_5per_50x.txt
#Wave		#Intensity
1818.91	2038.87
1817.34	2088.36
1815.78	2143.83
1814.21	2068.41
1812.64	2036.1
1811.07	2021.36
1809.51	2092.75
1807.94	2143.38
1806.37	2162.1
1804.8	2070.82
1803.23	1992.32
1801.67	1988.75
1800.1	2050.5
1798.53	2072.41
1796.96	2094.3
1795.39	1968.11
1793.82	2069.61
1792.25	2007.14
1790.68	2186.57
1789.1	2066.82
1787.53	2056.87
1785.96	2042.16
1784.39	2014.73
1782.82	2066.8
1781.24	2136.34
1779.67	2073.94
1778.1	2064
1776.52	1987.34
1774.95	2017.13
1773.38	2029.44
1771.8	2086.2
1770.22	2106.42
1768.65	2045.7
1767.07	2040.54
1765.5	2035.38
1763.92	2085.73
1762.35	2082.15
1760.77	2113.45
1759.19	2027.43
1757.62	2020.69
1756.04	2031.38
1754.46	2046.82
1752.88	2158.88
1751.3	2052.35
1749.72	2028.19
1748.14	1986.63
1746.56	2087.52
1744.98	2074.45
1743.4	2055.05
1741.82	2078.37
1740.24	2036.84
1738.66	2185.05
1737.08	2138.77
1735.5	2086.19
1733.92	2051.01
1732.33	2039.54
1730.75	1947.52
1729.17	2056.09
1727.58	2101.47
1726	2050.53
1724.42	1990.15
1722.83	2007.1
1721.25	1973.57
1719.66	2040.99
1718.08	2125.74
1716.49	2051.21
1714.9	1994.04
1713.32	1943.21
1711.73	2049.96
1710.14	2055.85
1708.56	2038.11
1706.97	2070.76
1705.38	1971.15
1703.79	1955.01
1702.21	1992.39
1700.62	1969.95
1699.03	1947.53
1697.44	1931.4
1695.85	1938.87
1694.26	1902.32
1692.67	2010.38
1691.08	2017.83
1689.49	1992.28
1687.89	1973.02
1686.3	1908.22
1684.71	1970.64
1683.12	2022.05
1681.53	1988.67
1679.93	1928.63
1678.34	1873.32
1676.74	1847.84
1675.15	1946.26
1673.56	1994.47
1671.96	1920.38
1670.37	1907.44
1668.77	1941.52
1667.18	1919.19
1665.58	1950.12
1663.98	1948.15
1662.39	1858.5
1660.79	1867.51
1659.19	1868.69
1657.59	1896.46
1656	1968.03
1654.4	1995.78
1652.8	1984.42
1651.2	1919.91
1649.6	1899.19
1648	1894.1
1646.4	1910.9
1644.8	1887.07
1643.2	1855.44
1641.6	1867.54
1640	1815.63
1638.4	1893.3
1636.79	1978.73
1635.19	1945.55
1633.59	1865.59
1631.98	1905.75
1630.38	1857.02
1628.78	1937.69
1627.17	1927.93
1625.57	1893.25
1623.96	1800.93
1622.36	1839.49
1620.75	1913.85
1619.15	1893.21
1617.54	1863.24
1615.94	1822.38
1614.33	1832.89
1612.72	1838.73
1611.12	1923.88
1609.51	1935.92
1607.9	1787.82
1606.29	1823.19
1604.68	1749.77
1603.07	1839.51
1601.46	1978.92
1599.85	1889.98
1598.24	1801.08
1596.63	1822.43
1595.02	1868.6
1593.41	1841.83
1591.8	1846.09
1590.19	1868.97
1588.58	1797.24
1586.96	1786
1585.35	1805.77
1583.74	1879.78
1582.12	1915.01
1580.51	1786.03
1578.89	1765.52
1577.28	1783.72
1575.67	1854.55
1574.05	1843.33
1572.44	1782.58
1570.82	1774.47
1569.2	1794.2
1567.59	1872.68
1565.97	1846
1564.35	1885.79
1562.73	1740.12
1561.12	1735.11
1559.5	1815.07
1557.88	1828.58
1556.26	1842.08
1554.64	1750.61
1553.02	1774.93
1551.4	1732.88
1549.78	1818.9
1548.16	1867.87
1546.54	1869.01
1544.92	1813.11
1543.29	1700.19
1541.67	1878.59
1540.05	1831.97
1538.43	1825.41
1536.8	1843.5
1535.18	1784.59
1533.55	1831.93
1531.93	1791.52
1530.31	1797.29
1528.68	1783.05
1527.06	1811.89
1525.43	1831.49
1523.8	1817.26
1522.18	1881.42
1520.55	1818.01
1518.92	1832.98
1517.3	1751.17
1515.67	1752.33
1514.04	1808.76
1512.41	1814.51
1510.78	1849.41
1509.15	1795.31
1507.52	1751.96
1505.89	1843.61
1504.26	1797.2
1502.63	1816.74
1501	1791.83
1499.37	1742.4
1497.74	1803.3
1496.11	1816.7
1494.47	1851.53
1492.84	1799.06
1491.21	1783.37
1489.57	1763.08
1487.94	1724.44
1486.31	1757.72
1484.67	1821.58
1483.04	1782.95
1481.4	1692.36
1479.77	1714.92
1478.13	1766.5
1476.49	1753.9
1474.86	1765.73
1473.22	1659.98
1471.58	1680.99
1469.95	1706.57
1468.31	1733.67
1466.67	1745.49
1465.03	1763.42
1463.39	1702.03
1461.75	1716.9
1460.11	1795.8
1458.47	1819.79
1456.83	1694.44
1455.19	1659.03
1453.55	1681.51
1451.91	1796.87
1450.26	1662.51
1448.62	1751.94
1446.98	1687.65
1445.34	1635.55
1443.69	1700.59
1442.05	1753.45
1440.4	1721.13
1438.76	1697.95
1437.11	1624.63
1435.47	1663.78
1433.82	1737.85
1432.18	1713.16
1430.53	1712.79
1428.88	1651.69
1427.24	1640.7
1425.59	1767.8
1423.94	1729.48
1422.29	1683.6
1420.64	1699.91
1419	1649.5
1417.35	1673.39
1415.7	1727.58
1414.05	1652.96
1412.4	1728.33
1410.74	1671.91
1409.09	1680.63
1407.44	1840.71
1405.79	1735.88
1404.14	1721.88
1402.48	1691.24
1400.83	1653.06
1399.18	1726.79
1397.53	1656.86
1395.87	1674.63
1394.22	1657.64
1392.56	1610.44
1390.91	1691.65
1389.25	1639.93
1387.6	1696.94
1385.94	1649.77
1384.28	1629.79
1382.62	1655.07
1380.97	1663.76
1379.31	1689.02
1377.65	1635.88
1375.99	1573.71
1374.33	1574.87
1372.68	1591.09
1371.02	1638.94
1369.36	1626.53
1367.7	1672.85
1366.04	1625.81
1364.37	1539.66
1362.71	1649.16
1361.05	1636.76
1359.39	1667.98
1357.72	1548.82
1356.06	1632.66
1354.4	1620.27
1352.74	1642.45
1351.07	1681.15
1349.41	1541.09
1347.74	1629.34
1346.08	1538.9
1344.41	1669.14
1342.75	1694.28
1341.08	1638.39
1339.41	1566.03
1337.75	1568.68
1336.08	1623.8
1334.41	1657.92
1332.74	1635.07
1331.07	1576.27
1329.41	1571.42
1327.74	1584.55
1326.07	1627.62
1324.4	1630.25
1322.73	1605.94
1321.05	1550.22
1319.38	1585.77
1317.71	1598.88
1316.04	1595.53
1314.37	1610.13
1312.7	1657.6
1311.02	1613.89
1309.35	1613.53
1307.68	1574.33
1306	1618.78
1304.33	1607.97
1302.65	1556.86
1300.98	1555.02
1299.3	1624.79
1297.62	1606.53
1295.95	1619.59
1294.27	1634.14
1292.6	1606.94
1290.92	1593.17
1289.24	1574.93
1287.56	1583.52
1285.88	1560.82
1284.21	1545.58
1282.53	1496.11
1280.85	1576.14
1279.17	1589.18
1277.48	1565.02
1275.8	1530.46
1274.12	1607.44
1272.44	1532.75
1270.76	1581.46
1269.08	1527.6
1267.39	1531.72
1265.71	1571.48
1264.03	1532.52
1262.34	1627.19
1260.66	1543.7
1258.97	1527.03
1257.29	1517.79
1255.6	1529.31
1253.92	1570.49
1252.23	1518.25
1250.54	1528.28
1248.86	1495.34
1247.17	1518.71
1245.48	1539.1
1243.79	1540.24
1242.11	1480.67
1240.42	1515.86
1238.73	1537.72
1237.04	1544.77
1235.35	1568.09
1233.66	1514.5
1231.97	1496.41
1230.28	1503.47
1228.59	1482.44
1226.89	1523.48
1225.2	1586.66
1223.51	1527.22
1221.82	1475.2
1220.12	1595.92
1218.43	1574.9
1216.73	1512.57
1215.04	1513.7
1213.35	1505.99
1211.65	1551.36
1209.96	1564.28
1208.26	1587.51
1206.56	1559.16
1204.87	1554.39
1203.17	1468.6
1201.47	1647.94
1199.77	1597.51
1198.07	1550.04
1196.38	1532.03
1194.68	1465.47
1192.98	1509.28
1191.28	1578.06
1189.58	1570.35
1187.88	1580.29
1186.18	1509.38
1184.47	1544.31
1182.77	1570.4
1181.07	1570.05
1179.37	1493.34
1177.66	1581.08
1175.96	1567.52
1174.26	1556.89
1172.55	1593.22
1170.85	1545.92
1169.14	1542.64
1167.44	1617.06
1165.73	1546.34
1164.03	1584.09
1162.32	1533.92
1160.61	1562.87
1158.91	1512.73
1157.2	1548.99
1155.49	1482.77
1153.78	1589.27
1152.07	1502.59
1150.37	1540.28
1148.66	1539.93
1146.95	1558.59
1145.24	1526.08
1143.53	1553.5
1141.81	1509.32
1140.1	1659.43
1138.39	1631.31
1136.68	1591.52
1134.96	1553.21
1133.25	1549.94
1131.54	1591.9
1129.83	1645.52
1128.11	1592.64
1126.4	1568.95
1124.68	1497.16
1122.97	1636.74
1121.25	1650.94
1119.54	1662.22
1117.82	1734.67
1116.1	1600.31
1114.38	1636.35
1112.67	1679.64
1110.95	1657.43
1109.23	1670.15
1107.51	1631.96
1105.79	1727.56
1104.07	1709.73
1102.35	1703.53
1100.63	1665.36
1098.91	1640.28
1097.19	1703.82
1095.47	1755.72
1093.75	1695.79
1092.03	1765.08
1090.3	1668.9
1088.58	1674.33
1086.86	1729.07
1085.13	1773.64
1083.41	1748.59
1081.68	1664.11
1079.96	1714.46
1078.23	1747.4
1076.51	1796.25
1074.78	1736.47
1073.05	1727.39
1071.33	1750.16
1069.6	1754.1
1067.87	1749.37
1066.14	1819.85
1064.41	1754.36
1062.69	1748.18
1060.96	1740.55
1059.23	1797.97
1057.5	1806.23
1055.77	1768.26
1054.04	1689.87
1052.3	1836.77
1050.57	1833.47
1048.84	1776.76
1047.11	1823.98
1045.38	1757.2
1043.64	1775.56
1041.91	1760.73
1040.17	1874.23
1038.44	1757.05
1036.71	1755.21
1034.97	1717.36
1033.23	1787.55
1031.5	1850.51
1029.76	1756.5
1028.03	1777.69
1026.29	1755.71
1024.55	1801.35
1022.81	1763.54
1021.07	1730.06
1019.33	1709.54
1017.6	1746.53
1015.86	1743.26
1014.12	1765.85
1012.38	1702.24
1010.63	1651.59
1008.89	1645.47
1007.15	1643.67
1005.41	1725.1
1003.67	1690.27
1001.93	1570.82
1000.18	1673.73
998.439	1628.9
996.695	1647.16
994.951	1717.02
993.205	1566.17
991.461	1584.44
989.715	1604.13
987.969	1575.13
986.223	1559.02
984.477	1562.96
982.729	1548.3
980.982	1482.14
979.234	1530.43
977.486	1587.29
975.736	1469.69
973.988	1525.1
972.238	1446.16
970.488	1502.98
968.738	1515.49
966.988	1526.57
965.236	1486.25
963.484	1440.24
961.734	1528.39
959.98	1523.76
958.229	1479.2
956.475	1434.65
954.723	1428.62
952.969	1463.93
951.215	1472.15
949.459	1399.15
947.705	1336.16
945.949	1370.03
944.193	1433.79
942.438	1407.84
940.68	1404.68
938.924	1348.87
937.166	1404.04
935.408	1352.52
933.65	1394.87
931.891	1384.6
930.133	1331.7
928.373	1349.87
926.613	1393.6
924.854	1377.66
923.092	1357.47
921.33	1324.51
919.57	1376.72
917.809	1316.81
916.045	1300.91
914.283	1351.67
912.52	1324.42
910.756	1300.02
908.992	1302.56
907.229	1262.58
905.463	1286.38
903.699	1257.76
901.934	1287.21
900.168	1303.91
898.4	1317.77
896.635	1267.94
894.867	1194.08
893.1	1275.85
891.332	1200.61
889.564	1241.33
887.795	1273.56
886.025	1273.27
884.256	1261.68
882.486	1272.69
880.717	1210.26
878.945	1243.87
877.174	1240.77
875.402	1234.84
873.631	1219.04
871.859	1235.69
870.086	1250.92
868.312	1184.37
866.539	1192.55
864.766	1224.7
862.992	1215.96
861.217	1259.35
859.441	1211.18
857.666	1212.32
855.891	1237.38
854.113	1234.28
852.338	1191.79
850.561	1184.48
848.783	1161.71
847.004	1182.54
845.227	1237.09
843.447	1255.08
841.668	1149.41
839.889	1171.62
838.109	1161.52
836.328	1211.81
834.547	1228.38
832.766	1226.7
830.984	1184.32
829.203	1266.82
827.42	1256.71
825.637	1203.14
823.854	1226.7
822.07	1206.79
820.287	1224.74
818.502	1279.09
816.717	1294.21
814.932	1249.1
813.146	1271.22
811.359	1276.53
809.574	1307.02
807.787	1315.12
806	1309.22
804.211	1293.54
802.424	1231.73
800.635	1364.23
798.846	1274.48
797.057	1306.33
795.268	1329.77
793.477	1339.25
791.686	1348.71
789.895	1324.67
788.104	1286.69
786.312	1300.35
784.52	1353.06
782.727	1358.33
780.934	1314.79
779.141	1244.8
777.346	1283.53
775.553	1301.35
773.758	1295.48
771.963	1271.51
770.166	1205.78
768.371	1305.73
766.574	1251.15
764.777	1257.82
762.98	1224.15
761.184	1212.74
759.385	1179.09
757.586	1213.57
755.787	1218.86
753.988	1232.47
752.189	1162.73
750.389	1158.3
748.588	1170.53
746.787	1178.59
744.986	1124.19
743.184	1141.97
741.383	1155.58
739.58	1166.41
737.777	1161.98
735.973	1204.69
734.17	1104.62
732.365	1184.74
730.561	1177.54
728.756	1134.33
726.951	1136.84
725.145	1117.2
723.338	1092.03
721.531	1094.55
719.725	1101.21
717.916	1146.6
716.109	1056.46
714.301	1067.27
712.492	1111.26
710.684	1135.87
708.873	1062.39
707.062	1059.38
705.252	1117.14
703.441	1094.79
701.631	1104.2
699.818	1066.69
698.006	1107.83
696.193	1135.16
694.381	1147.31
692.568	1089.14
690.754	1097.16
688.939	1030.76
687.125	1081.5
685.311	1097.78
683.494	1122.31
681.68	1105.53
679.863	1105.28
678.047	1102.27
676.229	1075.88
674.412	1083.88
672.594	1068.5
670.775	1065.51
668.957	1040.52
667.137	1087
665.318	1055.15
663.498	1087.87
661.678	1039.56
659.855	1072.27
658.035	1103.59
656.213	1063.54
654.391	1024.88
652.568	1027.38
650.744	1113.54
648.922	1079.01
647.098	1060.94
645.273	986.69
643.449	1094.7
641.623	1076.64
639.799	1065.43
637.973	1088.46
636.146	1055.36
634.318	1081.11
632.492	1087.7
630.664	1019.06
628.836	1011.98
627.008	1065.07
625.178	1078.49
623.35	1105.57
621.52	1050.67
619.689	1002.61
617.859	1089.78
616.027	1088.16
614.195	1052.42
612.363	1026.25
610.531	1030.1
608.699	1042.14
606.865	1032.35
605.031	1026.65
603.197	990.974
601.363	1015.27
599.529	1024.57
597.693	1035.23
595.857	1043.16
594.021	1003.44
592.186	1041.31
590.348	998.885
588.51	1024.5
586.672	998.419
584.834	987.306
582.996	961.243
581.156	993.642
579.316	1020.59
577.477	1067.9
575.637	991.587
573.795	1002.22
571.953	1059.01
570.111	1015.32
568.27	1028.66
566.428	960.579
564.584	988.839
562.74	1019.8
560.896	1094.13
559.053	977.301
557.207	947.258
555.361	1033.75
553.516	1040.28
551.67	1068.47
549.824	959.909
547.977	1051.73
546.129	1017.65
544.281	1060.7
542.434	1114.56
540.584	1023.69
538.736	1009.93
536.887	1067.82
535.035	1071.62
533.186	1075.42
531.334	1017.09
529.482	1038.45
527.631	982.855
525.779	1083.86
523.926	1101.14
522.074	1057.71
520.221	1052.07
518.365	1082.83
516.512	1152.68
514.656	1043.23
512.803	1064.55
510.945	1068.34
509.09	1089.64
507.232	1086.69
505.377	1081.04
503.52	1068.68
501.66	1065.73
499.803	1108.53
497.943	1081.37
496.084	1079.77
494.225	1071.44
492.365	1114.2
490.504	1167.68
488.645	1131.13
486.781	1106.69
484.92	1154.77
483.059	1166.57
481.195	1166.3
479.332	1120.4
477.469	1073.18
475.604	1158.76
473.74	1209.44
471.875	1096.54
470.01	1139.17
468.145	1125.5
466.277	1212.3
464.41	1233.44
462.543	1192.98
460.676	1188.68
458.809	1158.95
456.939	1176.07
455.07	1278.79
453.201	1196.91
451.332	1175.23
449.461	1225.74
447.59	1210.75
445.719	1269.24
443.848	1195.48
441.975	1188.51
440.104	1178.88
438.23	1214.64
436.355	1191.66
434.482	1148.68
432.607	1209.76
430.732	1177.47
428.857	1257.18
426.982	1238.21
425.105	1151.3
423.23	1175.01
421.354	1204.02
419.475	1211.72
417.598	1247.38
415.719	1277.69
413.84	1250.77
411.961	1226.52
410.08	1282.08
408.201	1241.88
406.32	1224.3
404.439	1239.95
402.557	1254.27
400.676	1267.25
398.793	1203.2
396.91	1238.76
395.027	1266.33
393.143	1220.9
391.258	1298.89
389.373	1245.51
387.488	1291.62
385.604	1272.75
383.717	1244.61
381.83	1266.83
379.943	1218.83
378.055	1327.14
376.168	1305.63
374.279	1252.36
372.391	1277.2
370.5	1267.63
368.611	1303.04
366.721	1249.82
364.83	1240.26
362.939	1241.28
361.047	1244.94
359.154	1256.53
357.262	1326.23
355.369	1201.77
353.477	1247.68
351.582	1256.62
349.688	1281.38
347.793	1233.57
345.896	1297.9
344.002	1276.48
342.105	1280.13
340.209	1315.4
338.311	1268.95
336.414	1251.52
334.516	1218.28
332.617	1286.45
330.717	1296.67
328.818	1256.86
326.918	1292.08
325.018	1275.98
323.117	1378.24
321.215	1313.48
319.312	1243.48
317.41	1277.34
315.508	1267.83
313.604	1253.07
311.701	1251.45
309.797	1228.82
307.891	1332.2
305.986	1259.7
304.08	1248.89
302.174	1194.81
300.268	1182.71
298.361	1183.73
296.453	1210.96
294.545	1197.55
292.637	1212.97
290.727	1210.05
288.818	1228.08
286.908	1226.46
284.998	1223.54
283.086	1176.14
281.176	1219
279.264	1242.24
277.352	1205.32
275.438	1246.84
273.525	1185.12
271.611	1221.4
269.697	1200.2
267.781	1138.53
265.867	1190.46
263.951	1261.93
262.035	1245.96
260.119	1181.73
258.201	1176.22
256.283	1147.24
254.365	1223.85
252.447	1176.63
250.527	1158.1
248.607	1114.83
246.688	1156.21
244.768	1146.8
242.846	1180.35
240.926	1147.52
239.002	1152.44
237.08	1197.66
235.158	1228.55
233.234	1195.75
231.311	1151.27
229.385	1121.09
227.461	1205.23
225.535	1188.04
223.609	1143.6
221.684	1114.76
219.756	1144.32
217.828	1134.95
215.9	1183.93
213.973	1122.7
212.043	1127.59
210.113	1126.01
208.184	1110.18
206.254	1168.17
204.322	1143.27
202.391	1093.79
200.459	1121.98
198.527	1079
196.594	1139.51
194.66	1117.23
192.727	1115.65
190.793	1116.66
188.857	1087.94
186.922	1083.79
184.986	1105.46
183.051	1112.92
181.113	1135.87
179.176	1102.02
177.238	1162.37
175.301	1140.14
173.361	1145
171.422	1148.57
169.482	1098.01
167.541	1149.26
165.602	1139.95
163.66	1137.08
161.717	1117.47
159.775	1088.86
157.832	1179.93
155.889	1179.63
153.945	1160.03
152	1128.87
150.055	1108
148.109	1155.26
146.164	1121.55
144.217	1184.19
142.27	1156.92
140.322	1146.34
138.375	1116.53
136.426	1147.02
134.477	1097.98
132.527	1101.54
130.578	1148.68
128.627	1193.23
126.676	1180.11
124.725	1234.88
122.771	1237.11
120.82	1232.94
118.867	1158.38
116.912	1118.4
114.959	1184.63
113.004	1163.85
111.049	1127.74
109.094	1176.01
107.137	1137.36
105.18	1172.83
103.223	1158.46
101.266	1118.57
99.3066	1231.89
97.3477	1149.88
95.3887	1246.54
93.4277	1242.37
91.4668	1193.58
89.5059	1198.36
87.5449	1176.37
85.582	1210.46
83.6211	1282.74
81.6562	1170.33
79.6934	1136.91
77.7285	1232.06
75.7637	1225.37
73.7988	1214.86
71.834	1219.62
69.8672	1201.49
67.9004	1244.38
65.9336	1208.46
63.9648	1101.42
61.9961	1087.15
60.0273	997.976
58.0586	790.801
56.0879	511.406
54.1172	352.685
52.1465	237.173
50.1738	181.318
48.2031	129.296
46.2305	76.0358
44.2559	88.6841
42.2832	75.9941
40.3086	44.3177