File: PeakFitting/xrdData/palmiotti_xrd/HT_XRD_Palmiotti.csv
2theta,150,160,170,180,190,200,210,220,230,240,250,260,270,280,290,300,310,320,330,340,350,360,370,380,390,400,410
20.19592,109.711,106.41,105.443,104.6397,101.475,100.179,99.86116,98.4972,109.845,111.065,101.934,109.951,105.551,110.351,107.481,112.319,112.316,106.614,109.945,118.464,102.114,109.734,113.919,105.511,107.44,117.3803,110.151
20.39892,106.775,110.19,109.5241,105.723,103.218,99.11301,99.02747,98.44408,110.085,106.173,101.542,111.4636,110.166,111.849,106.445,116.501,112.465,108.263,112.3669,114.276,111.269,112.466,112.892,107.448,107.952,115.906,109.593
20.60192,110.7997,110.855,112.928,110.857,110.582,101.1357,106.4421,100.701,110.973,105.825,109.399,116.859,121.418,112.054,114.449,111.492,121.935,116.0869,119.642,116.251,119.012,118.191,122.048,116.343,120.957,119.26,121.747
20.80492,101.59,109.48,107.281,103.736,99.8821,90.70029,106.329,101.362,115.259,110.724,107.744,116.663,123.129,116.134,120.157,114.847,122.818,113.035,120.713,117.951,121.4917,122.552,122.113,116.928,123.819,123.432,121.48
21.00792,92.23775,98.32502,91.49726,90.31141,87.63043,85.29193,101.97,101.062,109.572,108.533,112.29,115.96,118.766,111.951,117.045,107.019,117.752,108.968,113.746,109.323,116.873,119.8545,119.975,113.487,118.6828,116.46,118.675
21.21092,89.55136,97.55138,83.08541,79.72432,75.92565,82.33138,93.57508,103.477,107.915,105.473,109.835,111.604,105.527,111.699,110.645,105.279,105.476,100.784,106.316,107.491,118.276,121.877,116.911,112.844,119.169,117.344,111.1687
21.41392,100.232,95.63179,90.30361,87.72161,81.37928,92.86707,95.2005,107.131,110.895,105.616,113.973,115.074,102.6798,103.778,103.759,105.049,104.476,101.054,104.668,107.969,119.719,121.3164,117.719,120.686,124.897,120.358,118.114
21.61692,107.143,97.45151,98.48304,92.21217,86.87794,99.10769,99.16484,106.684,114.247,103.92,108.746,113.704,105.293,104.092,105.727,104.327,103.516,100.561,108.828,115.76,119.249,125.507,120.012,125.458,130.8696,128.152,125.617
21.81992,107.063,98.61016,103.78,98.51937,92.21959,102.862,101.851,104.143,115.426,108.133,107.851,114.601,106.923,106.723,104.745,109.06,108.5,100.756,105.252,111.748,112.03,119.988,117.157,124.548,122.033,122.699,125.321
22.02292,108.732,105.831,107.716,103.484,100.4399,106.416,104.176,103.428,112.622,111.011,114.251,112.232,112.5122,109.445,107.699,110.6319,110.366,105.03,109.087,111.695,110.785,120.483,118.505,122.67,122.0165,120.659,124.884
22.22592,111.426,111.565,111.058,110.408,112.157,108.998,109.196,107.3408,114.505,117.11,116.588,116.269,112.348,119.251,111.685,116.7972,114.155,109.063,111.6557,110.027,111.356,118.894,121.734,122.776,120.45,124.23,125.195
22.42892,114.067,115.64,113.475,111.275,114.122,107.129,112.78,108.148,114.093,118.219,119.276,117.763,116.119,118.115,111.653,115.5703,114.213,109.874,118.937,106.999,115.727,119.503,123.01,119.213,122.343,122.993,124.702
22.63192,119.4489,117.156,118.908,110.971,114.99,109.243,111.252,113.688,116.172,117.811,117.097,116.9953,119.059,121.769,116.648,118.999,113.053,114.976,119.414,111.1228,114.293,120.585,124.807,121.026,121.26,119.286,120.111
22.83492,119.723,119.684,122.9437,115.214,114.06,110.661,115.013,113.852,115.183,118.486,119.006,117.299,123.223,119.378,114.7965,118.2244,119.2769,118.206,117.82,117.764,120.162,124.2101,128.784,122.469,124.645,119.284,120.144
23.03792,117.216,124.342,122.922,115.626,116.152,114.4101,114.733,116.159,117.678,119.2894,116.874,120.394,128.6309,122.53,117.899,119.046,116.334,122.565,115.216,120.2426,125.624,126.541,128.218,129.597,125.785,125.463,122.4142
23.24092,110.65,123.006,118.365,115.249,111.462,115.617,117.114,118.212,121.34,117.33,116.783,123.668,124.455,118.728,117.863,117.312,118.091,119.483,117.127,117.175,128.658,127.936,126.927,132.375,126.1,125.924,122.611
23.44392,113.36,125.64,120.38,111.066,114.641,120.431,118.03,123.707,126.495,119.343,120.735,126.897,122.754,118.674,122.902,117.325,115.762,119.649,122.124,113.894,129.026,123.987,124.453,130.338,125.2238,124.7797,122.975
23.64692,113.203,120.596,115.555,112.5246,113.425,119.076,116.872,120.126,121.299,111.084,119.193,123.837,117.424,114.603,122.856,113.398,117.074,112.39,121.493,113.075,119.557,117.739,120.117,122.435,120.615,116.341,121.262
23.84992,114.924,122.638,117.3941,118.473,121.771,118.712,121.71,120.034,118.832,116.6832,121.384,122.907,122.285,118.999,120.559,112.809,121.513,114.662,119.448,118.614,116.206,114.527,120.722,117.416,121.1972,121.059,126.553
24.05292,112.753,117.937,113.547,120.3359,118.891,111.112,120.32,114.947,114.167,115.042,115.768,117.764,118.262,108.792,113.929,108.778,119.192,113.484,111.372,114.031,107.979,112.183,115.134,117.796,118.357,121.046,126.818
24.25592,121.372,119.88,123.4286,124.055,122.88,119.332,125.206,124.515,121.427,125.471,120.1381,119.454,120.474,112.189,115.24,112.127,121.008,118.911,115.475,115.657,109.337,114.723,116.7916,121.411,124.218,127.37,129.1389
24.45892,127.471,124.4938,129.474,127.834,128.897,125.313,131.214,131.539,126.669,129.871,124.106,125.986,120.054,117.64,119.598,116.264,117.1428,117.36,117.963,116.053,114.226,117.668,115.002,124.385,122.735,125.9774,128.3709
24.66192,136.366,135.207,143.933,140.375,138.887,138.732,140.1077,145.197,142.523,139.685,136.907,144.764,133.6552,133.243,133.279,125.568,124.051,122.56,128.6299,128.656,121.297,124.234,124.022,130.3167,128.828,123.564,129.038
24.86492,134.48,139.041,152.554,152.753,151.0206,144.972,150.88,153.194,151.865,149.273,145.024,155.042,145.542,143.452,142.387,136.334,135.112,132.777,133.733,135.516,128.473,127.969,128.802,130.0087,125.33,120.54,127.876
25.06792,132.595,137.209,154.615,157.442,156.544,154.34,154.82,160.706,161.925,159.048,155.601,166.831,155.183,151.471,151.283,145.3489,143.431,143.7628,137.764,140.29,129.52,126.523,128.865,128.87,124.19,119.071,123.786
25.27092,130.423,135.0147,152.393,158.064,161.665,160.429,166.612,166.092,169.595,167.726,168.737,172.964,164.855,160.786,157.574,155.862,156.326,155.473,143.607,140.506,129.44,125.696,126.619,125.101,120.778,123.26,123.777
25.47392,124.693,132.382,147.906,150.444,156.864,162.6006,170.056,173.965,172.359,173.057,175.384,177.103,166.495,168.484,157.817,159.011,156.326,152.93,145.531,138.376,123.799,117.847,120.142,116.408,117.568,119.956,116.2046
25.67692,124.876,133.453,148.6975,158.4971,162.1124,167.579,182.0408,186.841,183.841,186.655,192.032,190.397,184.934,177.345,168.427,170.78,170.251,164.188,157.557,137.405,123.487,119.533,120.676,111.043,120.334,121.325,117.378
25.87992,124.3355,133.939,153.371,164.797,165.191,177.892,189.1804,200.301,197.261,206.341,207.871,212.269,210.191,201.541,190.306,191.234,184.5753,180.106,176.415,142.106,125.892,116.566,118.456,107.105,120.332,119.984,113.02
26.08292,139.001,146.585,170.129,187.9098,185.0998,194.687,209.86,220.22,226.657,238.171,248.781,264.8503,277.44,272.801,266.853,262.592,252.976,244.538,237.765,176.485,141.7029,131.246,143.39,130.9735,138.736,135.325,129.6782
26.28592,139.276,143.928,177.884,190.033,191.045,202.265,218.441,228.489,236.18,254.944,274.392,313.141,354.095,388.827,397.161,401.349,399.794,396.857,387.917,248.371,147.289,157.852,151.465,139.715,141.45,136.87,132.382
26.48892,135.485,140.617,182.076,194.123,196.204,202.8802,218.032,235.318,239.891,258.417,293.502,348.258,413.208,488.148,529.699,539.958,559.178,566.611,553.976,341.055,157.174,170.264,148.389,139.267,136.392,133.512,130.8623
26.69192,133.324,141.9596,182.079,192.177,197.7,201.022,216.457,231.573,237.563,256.9897,292.425,345.172,410.1943,484.924,536.34,545.003,580.094,589.834,578.927,358.871,154.49,163.751,130.139,126.598,122.989,125.249,120.998
26.89492,136.631,148.026,183.862,190.241,191.961,200.481,208.106,224.799,235.104,247.545,275.69,309.852,346.605,390.658,422.834,429.469,449.785,457.983,454.605,303.268,146.657,135.554,121.856,120.786,114.229,119.752,115.851
27.09792,142.594,154.334,180.64,185.821,187.281,200.223,203.131,211.753,225.828,234.542,245.322,258.096,270.875,274.1089,278.3295,279.996,279.466,283.706,284.6092,213.636,136.162,123.038,124.188,120.844,115.269,122.64,117.352
27.30092,140.513,145.856,174.455,178.737,174.712,189.926,188.285,194.686,206.969,210.158,210.323,214.519,212.076,207.772,201.833,204.868,198.14,205.936,208.344,171.986,130.358,120.595,122.157,118.251,112.758,120.82,115.161
27.50392,133.561,138.543,161.426,167.034,164.471,170.1851,174.626,173.445,184.429,181.031,182.688,179.018,175.678,167.256,165.495,162.071,161.302,168.371,169.049,155.279,137.8703,113.014,115.338,109.703,109.517,115.657,109.312
27.70692,134.278,133.611,156.388,159.001,155.929,158.485,164.748,163.343,166.788,162.5804,163.0099,162.798,154.911,150.67,147.985,143.411,143.6029,146.366,146.684,149.312,141.345,113.162,113.589,112.616,110.333,112.799,109.515
27.90992,135.646,137.503,152.017,149.823,151.467,154.831,156.302,159.874,154.8,151.912,157.059,155.29,147.146,142.1365,139.703,139.117,134.116,140.7687,138.177,142.406,142.207,119.693,118.237,116.383,116.03,115.238,117.2689
28.11292,141.702,141.97,150.824,146.324,149.725,149.646,152.005,152.87,151.203,147.773,147.171,151.8444,143.593,141.6275,135.552,136.421,133.185,136.728,136.1811,136.943,133.323,125.608,123.927,122.601,121.44,120.389,123.0231
28.31592,136.333,141.223,140.033,139.922,140.618,138.191,140.679,141.019,144.964,139.7472,139.919,145.743,135.992,137.08,127.277,126.72,127.9229,128.7362,130.554,126.577,124.266,123.672,123.933,118.275,122.233,121.081,120.323
28.51892,131.285,133.231,129.14,128.1099,127.6983,121.302,126.266,128.276,133.505,128.553,126.735,131.86,123.683,122.692,118.077,113.326,117.773,115.978,119.617,120.702,114.959,113.174,115.291,113.268,113.536,115.062,110.638
28.72192,128.54,131.798,125.385,123.704,121.627,120.992,121.17,125.741,127.599,127.296,123.323,128.136,119.202,117.9301,119.769,111.399,114.383,114.432,117.157,117.823,114.026,111.094,118.1072,114.334,114.359,115.937,110.4074
28.92492,133.148,129.9495,125.823,118.7359,121.823,119.367,118.002,124.951,120.526,125.128,122.201,122.239,117.89,114.297,118.578,113.213,113.346,115.503,117.974,119.624,117.698,111.087,120.614,118.248,112.851,114.962,113.526
29.12792,132.986,127.217,124.3621,118.504,123.542,123.131,121.6088,124.297,121.108,122.274,119.127,122.507,118.502,118.954,119.148,119.021,112.487,117.768,118.2727,121.47,120.435,117.182,125.046,121.063,116.086,117.652,116.675
29.33092,128.764,120.121,118.6188,115.1959,117.248,114.6293,116.6603,121.113,110.964,116.231,113.393,113.035,115.065,116.3233,112.35,112.767,108.458,115.161,114.614,121.22,120.886,117.7505,122.289,121.6446,115.5,115.772,117.8366
29.53392,121.185,118.046,110.054,112.546,111.645,108.342,114.006,113.109,108.498,112.232,108.721,106.618,107.969,110.2,104.74,109.011,104.073,108.62,105.662,118.422,119.542,120.356,119.463,123,118.18,117.962,118.3182
29.73692,121.393,116.743,105.95,111.429,108.102,103.895,110.531,109.14,104.3027,109.9353,109.2202,101.612,103.078,105.175,101.4671,105.091,105.119,102.57,101.6739,119.286,130.451,129.825,125.533,128.089,123.049,126.657,125.374
29.93992,117.6877,116.286,103.897,108.381,107.509,104.13,109.067,107.436,104.171,107.518,107.1506,101.639,99.05115,102.994,101.266,105.5083,104.951,97.19482,98.83506,130.4621,149.886,147.663,142.301,144.343,142.61,145.937,142.141
30.14292,116.005,112.898,103.691,108.712,103.445,104.258,110.301,108.722,101.7568,106.797,106.637,102.663,99.80277,103.617,104.3001,105.137,107.226,98.26788,102.254,150.141,192.222,190.091,187.461,182.622,181.974,186.408,183.191
30.34592,111.172,111.19,101.299,107.036,101.526,104.813,106.309,104.1,99.22501,104.985,100.176,99.88366,98.32697,101.726,105.219,102.628,103.727,96.93512,102.544,173.348,241.132,236.435,239.266,236.544,235.502,239.243,239.494
30.54892,109.219,107.136,95.80624,102.347,96.36724,102.637,101.166,97.74555,96.02917,99.07274,97.83355,95.42369,92.81859,99.44188,96.40426,98.19421,99.19291,95.27699,98.10112,184.045,260.378,253.923,261.325,258.488,257.744,262.3233,267.258
30.75192,101.296,100.62,90.98925,94.22334,90.6321,96.40403,94.26873,90.91773,92.23677,90.27773,90.36058,89.86371,87.28594,96.06995,90.49675,89.80812,90.4613,88.91936,91.88106,173.803,236.379,221.329,231.424,230.349,229.542,236.002,244.116
30.95492,98.78152,101.9421,95.27826,90.89389,90.50553,93.18444,94.42634,92.36028,93.40266,89.30064,90.82028,88.28694,86.52111,95.65822,86.68589,89.75862,89.40661,90.94637,91.15584,152.18,183.529,171.551,178.933,178.6,177.75,180.139,187.988
31.15792,103.427,104.16,101.191,94.25941,95.2009,95.01276,97.27876,97.5978,98.00916,91.71175,90.18162,93.28097,91.67058,96.66139,94.59725,94.81033,93.5299,94.40075,94.62816,132.7479,144.208,139.91,142.119,142.2964,140.905,144.591,145.114
31.36092,106.7655,104.447,100.94,94.16014,95.28041,93.83331,93.21834,98.41704,95.44609,92.67429,88.99029,92.73812,94.5283,95.27945,91.60024,93.60963,91.13155,92.76687,93.05477,116.66,116.818,124.377,121.593,122.892,121.344,126.499,122.754
31.56392,107.112,101.641,95.22546,95.80841,95.31507,89.2533,92.80512,96.69606,92.45547,92.24334,92.45294,93.71804,93.85539,91.83012,88.81026,89.56608,92.76555,90.76703,90.9733,110.332,106.778,112.36,111.037,115.595,111.8217,119.395,114.886
31.76692,101.323,95.7718,88.20214,88.00327,89.03142,82.41582,88.01413,90.10665,86.4127,87.46815,90.49912,86.13014,90.09619,86.59522,81.58095,80.24816,87.46469,85.32297,87.29259,98.74369,98.48823,100.174,101.307,101.667,101.385,108.417,107.157
31.96992,100.112,97.07966,84.23188,86.83576,87.66223,85.20341,91.50268,89.84662,87.54189,88.43608,94.00956,85.87696,89.75239,85.05313,83.11735,83.37393,86.07676,86.94335,88.48609,96.47822,99.32713,95.44332,97.83402,99.78538,99.97235,105.0555,100.0549
32.17292,93.09886,93.28244,83.01731,80.78095,80.36074,86.83176,88.73175,86.93477,85.04726,87.94118,87.26357,82.97424,90.1364,86.64832,82.5543,84.25691,82.51012,85.3068,86.05509,90.53157,93.01564,93.23328,94.63183,91.15299,95.57462,97.56281,93.51861
32.37592,88.6287,92.62816,81.82463,78.79311,76.82472,82.77988,85.43189,86.54684,83.9668,88.92146,86.29679,83.64136,89.30465,86.19979,81.37616,87.03805,78.39613,82.25973,83.93853,88.33089,90.10913,94.10218,90.71927,92.35647,92.12547,92.37746,88.61632
32.57892,86.89268,90.4819,84.27856,77.73661,80.10012,82.32673,84.64221,82.45559,82.17172,87.96625,83.80867,83.38304,87.52853,87.66532,84.20647,85.82436,83.93177,82.81327,83.51113,91.41967,88.29968,93.58054,90.64585,90.82642,92.96207,91.30739,89.49593
32.78192,85.98981,86.0924,77.96714,76.37153,76.25336,76.01061,79.20492,78.74164,78.41549,80.14461,81.02882,79.95697,81.53579,82.40366,82.0111,82.70243,79.37648,78.29329,79.87565,88.0645,84.42092,89.93806,88.44882,88.88465,92.78042,93.73126,91.66319
32.98492,84.12036,84.66155,76.30221,78.10808,79.62373,79.02402,80.15889,75.31291,78.40242,76.9591,81.18174,81.36562,77.90506,82.63357,80.5276,81.287,80.11178,79.24999,78.75055,87.33693,83.92475,86.60622,88.59126,89.44802,97.10154,101.406,97.08073
33.18792,83.26752,82.92306,77.63796,79.41654,76.82833,78.33464,77.94921,76.2251,80.5972,76.39175,79.83508,79.59555,75.42389,80.59712,78.51408,79.76098,77.95867,79.48069,76.89083,83.68086,81.69101,85.19635,88.99758,91.60959,94.15214,97.97407,97.4356
33.39092,80.55141,82.43298,78.88134,77.42378,78.19757,78.56512,78.43321,75.53559,79.88917,77.2243,79.56607,81.41503,74.79507,81.20989,76.36255,76.58498,75.63528,78.36255,77.40466,80.66628,84.75608,84.68188,85.04776,86.92838,88.77449,91.36512,88.19895
33.59392,76.69424,78.9974,75.38594,74.66808,70.74087,75.99148,73.30877,74.68806,74.53934,76.01812,74.01003,74.52973,70.85086,76.16081,73.5355,74.05342,71.22974,74.76265,74.32374,78.27183,79.28646,82.30987,77.72432,81.23516,74.82807,79.36659,78.35924
33.79692,76.19959,78.53646,71.58254,74.517,69.83713,75.10813,74.50036,73.41993,73.4722,74.77493,73.47453,75.22503,71.92482,74.55184,72.45013,72.5829,69.98918,73.28601,76.05654,76.77355,76.7959,79.93005,76.30864,78.88303,74.71327,78.1685,76.64891
33.99992,78.40557,79.32027,71.9936,77.73553,71.78972,76.41035,74.97598,71.91433,77.89474,74.14016,73.60935,73.69637,73.91581,74.6733,73.53523,75.5138,72.86506,75.92676,75.33296,76.55782,74.8642,78.46395,77.47675,78.98943,75.38725,78.59702,77.24964
34.20292,83.60969,82.16238,77.13211,80.19304,75.48068,77.72214,80.19864,73.46101,81.27146,75.17714,73.75102,78.78722,79.73189,78.52733,77.45036,75.94516,77.29764,79.22779,79.40807,77.28458,76.74339,80.89051,84.2778,82.12402,81.52824,84.10737,81.63467
34.40592,78.38033,77.93604,72.60854,74.64264,71.43903,72.79845,73.33318,70.93094,75.87162,71.29279,70.31472,73.6594,74.13755,74.25635,73.13041,72.1773,73.22185,73.68049,76.62198,72.70946,72.31228,78.65327,79.44955,78.94188,80.94598,83.27586,81.31233
34.60892,79.08979,78.65953,73.46033,75.23651,72.10061,73.91526,74.37761,77.89498,73.9576,75.96005,73.52453,72.83209,73.36064,76.02608,74.22556,72.14236,74.86016,73.03809,79.71037,77.17715,75.15876,82.29334,83.04854,83.70111,84.27347,87.37638,86.46369
34.81192,75.74603,73.61566,68.78556,70.29408,69.22411,71.83259,70.33186,77.32191,70.50156,71.94404,73.23584,68.99185,70.46944,72.41651,69.56268,69.00291,71.12369,70.43298,75.94568,76.29692,77.28892,82.73222,81.08342,83.49529,83.50161,85.81559,83.43974
35.01492,75.13059,73.88866,70.15554,70.19914,69.98373,71.38777,72.31291,76.84687,71.20307,71.90554,74.31508,69.96136,71.28875,73.96885,69.61167,70.87347,71.38984,71.3744,74.38489,81.9666,84.38025,88.15499,92.54965,88.45288,87.80543,88.88244,87.69961
35.21792,73.10546,70.44054,65.66606,65.59545,65.04617,68.25231,69.61365,71.32355,69.22062,66.2196,67.35769,68.99316,68.65954,68.69966,65.01996,67.21337,66.10703,69.70068,67.94981,81.12071,87.53121,91.76745,96.42303,90.82704,93.67041,93.35487,92.18778
35.42092,76.775,74.40128,69.45719,71.15424,69.2873,70.0818,72.98689,72.30766,75.51439,71.32289,72.13394,74.03096,69.26272,71.58479,69.47671,72.41062,68.94918,73.77079,71.20258,86.48477,93.91689,99.34363,105.603,96.97458,102.413,102.127,101.061
35.62392,77.25505,72.56102,68.47566,69.74292,66.60253,67.77246,70.80785,70.15802,72.74378,68.51777,68.84813,71.18767,67.04968,70.26352,68.07158,70.09703,66.60009,73.27877,70.04532,83.58697,90.57906,93.28243,95.42993,90.56452,96.37835,98.37888,93.66677
35.82692,76.64729,73.78129,67.78457,70.11706,67.52725,68.81341,70.26778,70.87344,73.8761,68.05858,69.56902,72.04323,67.06071,71.05009,70.48772,72.81951,68.16072,71.41834,74.35984,81.16643,85.01195,85.57076,87.71629,83.93368,86.76321,89.76631,84.70867
36.02992,73.04311,71.69731,65.61478,66.27353,63.86512,68.11979,67.1198,68.71427,68.99867,65.01177,66.84054,67.07864,65.783,70.41856,69.25328,69.58414,67.34902,66.55493,71.95197,77.18882,74.68963,75.48682,77.71426,76.52064,76.93493,79.24139,74.93333
36.23292,72.6336,70.67226,66.97709,67.18583,65.01396,67.96065,67.85769,70.75202,68.79721,65.92913,67.13713,68.05984,66.74307,70.31689,71.30874,69.06902,69.07843,65.95487,71.60971,73.3537,69.25584,71.01969,72.83564,73.2687,70.42469,74.10665,73.30621
36.43592,67.11894,64.2853,60.57127,61.68296,58.71637,60.05162,62.87028,61.60895,63.1301,63.47487,65.26832,61.48689,61.42433,63.50142,66.8013,61.51624,64.3546,60.50396,61.29581,66.86944,61.794,63.20732,63.37851,65.919,62.72602,66.83691,64.14097
36.63892,63.55508,58.73695,54.60973,57.24513,54.9929,53.11837,58.6003,56.88116,58.78517,59.16208,59.35805,57.96302,57.09376,58.13145,63.19288,56.20784,58.88578,56.70451,55.01939,58.24277,54.91467,59.51662,56.91045,56.81551,56.56841,60.04529,57.79525
36.84192,62.23313,58.29211,51.85969,55.92749,53.92665,52.57491,57.85473,55.29434,59.63126,59.10229,60.15265,57.44129,55.98364,56.55241,58.96337,56.95029,56.25841,54.1864,55.63176,55.63706,55.79288,60.96253,58.80577,56.77796,58.41978,59.20895,56.36358
37.04492,59.85548,56.06061,53.22148,55.90965,53.5938,51.43765,55.57503,56.39406,58.7912,58.33385,56.22265,59.05707,55.40802,57.81838,58.81383,57.18506,55.70632,54.2397,57.15719,54.38595,55.07076,61.37398,59.90516,57.45083,59.14874,58.58519,58.20779
37.24792,60.89802,57.82586,55.30601,57.84335,54.20041,54.89556,58.2031,57.32558,60.60826,60.30668,57.81694,61.57643,57.1562,58.80758,58.15496,57.28142,57.65043,54.57374,59.56054,58.29615,60.08852,62.03222,62.7946,62.98715,63.26752,60.64945,59.85244
37.45092,58.55465,54.11414,53.20201,56.00124,52.01978,53.71577,55.77386,55.06369,57.94539,58.23309,55.33295,60.48432,55.71235,56.10299,56.82634,53.81658,57.06984,55.01824,54.91426,58.15746,59.30069,61.16613,60.32899,62.93026,60.26079,58.54295,58.37632
37.65392,59.7816,55.15288,55.66811,57.0959,55.45258,57.50866,58.07973,58.20644,57.72006,59.16495,58.78348,59.91125,58.74844,56.75022,58.40921,54.93213,57.33026,56.50413,57.53858,58.67532,60.38497,61.73162,63.61575,63.02722,60.35616,58.55006,59.00943
37.85692,55.4143,52.57119,55.43039,57.22229,54.2577,54.46931,55.51711,57.74238,54.02121,56.92092,57.39317,56.51117,57.53637,55.97346,56.96641,54.75737,56.19697,55.95625,57.77836,57.47891,56.05889,60.09914,62.07094,60.93637,57.20674,54.83897,57.06918
38.05992,55.24904,54.14511,57.55182,58.4633,57.61328,55.57695,56.97606,58.30312,55.73534,59.08451,57.5872,56.12172,58.25796,57.26257,58.4355,55.36026,56.80086,56.51921,60.74942,58.21792,54.86167,60.14908,61.06542,59.94281,59.46479,55.53828,57.3271
38.26292,52.5085,52.02249,54.93201,55.23347,54.11827,52.42834,52.80593,54.13307,52.10167,56.77072,53.13008,52.2989,52.15169,53.54874,53.28894,53.15492,54.54016,53.11601,56.22036,55.93304,52.63219,57.32536,55.87798,57.2289,57.63631,53.00679,55.98852
38.46592,52.97315,53.09531,51.91388,53.83791,55.48006,51.85326,51.82217,54.34286,50.57009,57.39743,52.64059,51.21294,49.67542,49.44021,52.66881,51.59014,53.35053,50.02605,52.00005,51.30248,52.20029,54.24755,53.44598,53.62138,55.07717,54.13116,55.16142
38.66892,50.52975,53.08264,48.97052,50.67337,52.17344,50.32722,50.40089,51.96875,47.73518,52.14484,50.1032,49.68459,47.84496,45.51873,51.28663,50.85848,50.1141,47.94196,48.10566,48.42395,50.11774,51.37205,51.75863,49.33622,51.93162,52.13056,52.36377
38.87192,53.67074,55.75864,52.13538,55.37566,55.29503,54.05341,54.44981,54.25138,51.84015,53.27577,54.55798,53.43221,53.7954,49.66073,54.37693,52.46284,50.20164,50.47788,51.96498,51.87084,52.30767,54.46155,53.86975,52.81239,52.95198,53.95802,52.42107
39.07492,56.82542,56.91063,54.48806,56.95895,56.36198,55.67966,57.80475,52.41542,56.75562,55.03667,56.44714,56.83952,56.79841,54.86146,57.25525,54.15756,52.02445,54.68847,56.28559,56.00474,55.66658,58.33592,55.86918,55.19697,56.12085,54.59413,55.37346
39.27792,59.92942,55.51664,52.11096,57.90962,56.73077,54.94102,55.77139,52.32243,56.82521,57.21269,57.24582,53.25651,56.81771,55.93477,57.03188,51.95456,53.72632,52.4295,55.46923,56.29251,55.05447,57.15391,54.14749,54.81326,55.61925,53.37,55.78547
39.48092,56.56387,53.22393,48.73274,53.83592,51.59218,50.34954,53.15339,48.74023,54.29235,54.25493,53.66915,50.0219,52.38748,52.21485,53.34898,49.89415,54.04917,49.81614,51.05662,50.91768,51.62908,55.11115,52.68465,50.66114,52.46017,52.44999,54.38428
39.68392,55.98736,55.46677,50.54873,54.44612,51.25493,52.42492,55.06789,52.11671,52.99449,54.78515,55.52628,50.8272,54.21841,52.0946,53.43756,51.43543,54.31961,51.50793,51.18529,51.8377,52.53056,54.28667,55.09195,52.59738,53.54783,53.66382,54.66648
39.88692,54.67098,54.81529,54.20616,54.74828,51.03065,52.32588,56.48606,52.07377,52.86552,54.65599,55.23413,54.41015,53.36826,53.62162,52.33924,52.89348,53.9302,54.11511,52.61574,50.52203,53.43686,52.95887,55.70768,53.62695,52.16981,55.42422,53.56371
40.08992,57.46393,56.3335,56.21003,56.91658,53.6884,55.52432,58.25869,56.34792,53.7846,57.33672,57.093,55.56656,55.50559,56.73009,55.34687,52.35595,53.45055,57.31051,54.57136,54.88885,54.15073,51.99197,56.34686,57.39338,53.66595,55.67181,54.60341
40.29292,56.62352,56.32153,55.29609,55.30338,52.63799,54.13985,54.71829,56.9565,53.14055,54.34384,55.62031,51.59234,55.65433,55.64079,52.6565,53.05111,53.46161,55.05893,52.2036,56.40206,50.86763,50.72826,52.57348,55.22091,51.96239,53.25959,51.92019
40.49592,57.82649,59.29164,58.61195,56.4857,55.53306,56.02476,55.75452,59.93551,56.02927,56.53984,59.64319,54.27648,59.0501,57.4538,56.10088,55.41296,55.62018,56.70159,54.71761,59.20151,53.20169,56.64171,54.75631,57.48943,54.55959,53.15659,53.44825
40.69892,58.40133,59.78511,58.32707,56.91288,57.19238,55.40938,57.41042,59.92138,57.95186,55.57291,58.46976,56.125,59.21751,56.54085,57.56168,58.47294,56.7995,56.23995,55.63115,57.56543,53.77012,58.09081,55.96522,56.64884,55.53819,53.34258,54.76637
40.90192,54.22415,54.05543,56.05502,54.13676,53.23087,51.212,55.08959,54.44561,54.35953,52.31539,54.87531,55.76123,52.3528,53.45416,55.07235,54.00356,52.3691,52.29503,52.26102,48.57494,52.18455,53.38541,53.33569,51.43045,50.33051,49.85675,52.51665
41.10492,51.5523,52.03376,53.08333,51.53709,49.02231,51.55564,55.40194,51.57938,53.02689,51.29745,50.98868,52.2776,47.81365,51.95213,52.96308,50.68916,49.52296,50.64673,50.99017,47.02334,48.69207,49.8677,51.63915,49.07805,50.65661,49.09952,51.79594
41.30792,51.51977,53.04686,52.96018,51.42487,49.84199,51.76986,52.55873,51.60893,52.64848,52.63374,52.04681,52.92553,47.22305,53.36926,50.75252,48.52627,52.19585,50.36528,51.89907,49.06248,50.12441,50.17038,51.78129,49.15346,51.20394,50.46806,51.15813
41.51092,56.05593,56.92975,55.67848,55.28939,53.85894,55.51648,54.97634,54.38006,57.34665,57.78658,54.61728,53.47864,50.66075,53.36122,54.58289,51.21731,56.17209,52.79985,56.88651,57.44089,54.40721,54.35523,56.70074,56.22333,58.5643,56.53901,55.20472
41.71392,59.75036,58.89488,60.20792,57.62386,57.84776,58.15716,56.7205,57.17109,60.72006,60.40711,59.05431,56.19936,55.80303,55.46133,58.9586,55.2845,59.04206,54.67462,59.093,60.79438,60.29285,58.63029,60.63167,59.86306,61.14828,60.79402,59.55308
41.91692,59.05236,59.72888,61.00177,55.3654,59.05706,57.97236,61.44732,55.64889,60.62579,59.16568,59.74359,54.83951,56.20539,52.97884,60.91389,53.42863,56.57762,54.50878,57.83432,60.00362,58.68277,58.40348,59.35701,57.61506,61.26274,60.48682,57.58118
42.11992,55.82155,55.44824,57.62054,50.37651,56.89755,56.93359,60.36043,52.88585,57.54537,56.36978,57.75952,53.30961,55.13199,51.47095,56.61699,50.85382,53.68695,52.90487,52.38371,52.63379,53.91966,54.6839,52.33031,53.29745,55.12834,55.4395,52.44199
42.32292,53.7749,54.69522,55.63598,51.26631,56.98829,55.2874,60.36819,53.56587,54.94938,55.78941,56.31451,53.71136,55.35027,51.53695,53.95181,49.94161,52.76683,51.47833,51.21999,50.82026,50.66544,50.42748,50.81014,51.61166,52.2219,51.32249,48.65949
42.52592,52.88895,54.22643,56.58572,53.63645,56.22962,56.7374,59.21378,56.38643,56.21129,58.59878,58.65953,54.42757,56.64952,54.36604,54.76307,53.47545,52.82883,51.92866,52.15843,48.6996,50.79154,50.16533,52.48881,53.14649,51.74813,50.66237,48.82124
42.72892,54.3439,57.59148,59.41326,57.32982,58.92767,56.51986,60.67314,61.8134,59.48203,61.16145,61.44896,59.93478,57.54904,56.92094,57.34579,54.45025,55.34876,54.00236,56.9323,50.4018,52.08285,50.59159,55.36186,54.5208,51.45946,50.37424,48.9694
42.93192,53.53637,55.45281,57.68727,55.08539,59.17635,56.03348,60.5638,62.49812,59.63475,60.61012,61.70175,57.68484,53.16817,55.34579,56.45109,54.22303,54.19428,53.87475,55.1531,45.12854,49.5284,50.1215,52.24608,51.34483,50.80674,47.98461,46.83061
43.13492,52.33762,52.75545,57.38898,54.65812,59.71695,56.56505,61.17371,61.78353,58.86893,59.29621,61.93443,56.85372,53.62331,54.56226,56.30494,54.02125,55.80705,54.57521,54.01592,43.9914,47.88953,48.3546,48.43595,48.95197,49.86537,48.13735,46.8707
43.33792,53.30226,53.61134,60.42417,57.50191,62.41103,62.29156,65.28149,65.4701,64.55448,64.30868,65.85181,60.87901,63.31585,58.6949,62.0997,61.93976,61.95656,58.90336,55.12524,48.10541,48.86213,55.9736,53.25871,53.33594,56.787,54.27627,53.41544
43.54092,51.93302,53.23629,61.12114,59.54122,61.9851,62.06122,64.12373,66.23611,69.04133,68.3917,70.62218,69.19643,70.30916,64.68699,67.03935,66.70779,65.5002,59.77666,59.2726,50.27035,47.00255,63.51632,60.93106,59.02359,58.7585,58.70981,53.508
43.74392,52.55994,55.00483,61.24624,61.42382,60.66088,63.27424,63.35646,71.08345,72.54517,75.27403,74.92231,79.12867,81.20836,77.60573,80.60313,81.10657,77.50517,73.01706,71.1279,55.2257,47.39695,69.37447,66.24022,63.60082,60.32546,60.35684,54.3928
43.94692,51.92391,52.54342,58.60459,59.58145,59.22308,62.61518,64.41122,70.47243,71.17647,76.16565,77.90171,81.51119,90.10842,93.28353,98.80665,99.2366,95.26114,96.13582,92.16083,58.57107,50.32938,64.40882,62.77765,59.14959,53.47917,55.61783,52.3976
44.14992,56.65987,54.55856,62.06865,62.85873,62.18509,66.4283,67.5086,71.16782,70.88697,79.46249,81.33126,86.67796,100.428,102.72,111.588,115.93,114.0253,119.246,109.217,65.87756,68.99757,57.94424,57.15552,55.31541,49.59037,54.51293,55.37405
44.35292,59.24986,55.60106,63.65118,62.80827,64.71373,69.30788,69.42138,71.53706,71.31606,77.00796,81.86468,84.64826,96.87324,98.03604,104.8499,110.237,112.654,116.375,110.088,65.77249,74.04913,52.90827,55.71577,53.05229,48.29485,52.07615,55.00135
44.55592,59.75414,57.4936,65.35727,63.13332,64.9551,68.84047,66.4746,69.83156,72.1402,74.75264,82.31918,80.67719,83.11986,83.04651,87.36718,91.33739,94.4404,93.73689,91.79903,62.95388,71.89904,51.60473,52.65904,52.9905,48.99281,50.8935,51.80894
44.75892,61.33275,60.20477,64.2201,63.31787,66.76853,70.37315,69.4369,75.36815,73.69027,71.1583,80.26436,76.50305,72.91508,74.28091,75.63474,76.04962,78.68517,74.43179,77.53233,59.78452,60.57763,51.90381,55.31769,53.44863,51.65274,52.58565,51.28091
44.96192,57.45263,57.703,60.87792,61.07064,64.07025,64.49872,67.00262,68.91104,70.67438,67.10082,73.07425,68.94799,64.97731,63.5026,65.49739,66.22783,65.90073,61.36934,63.59377,58.64119,54.62119,49.0495,48.7383,49.70266,48.79073,50.91241,47.46822
45.16492,55.18638,55.89519,58.45222,60.58833,61.58113,61.55794,64.54367,64.93789,64.94127,61.53606,64.62473,64.02336,59.6896,58.73289,59.56047,59.82644,57.78303,55.95094,59.62863,64.91975,57.21302,48.7667,49.01386,49.05979,49.59119,52.83432,46.92929
45.36792,53.30671,54.52081,56.77278,56.26171,56.1761,56.37211,58.21077,58.75985,59.1647,58.42184,58.79033,56.6444,55.71255,52.05655,53.80722,54.33776,51.09013,50.75033,51.80597,70.50843,57.69896,48.46861,45.82973,47.47026,47.52532,48.97459,46.01343
45.57092,56.55532,57.30095,58.3689,58.13012,56.41323,59.34675,56.09514,60.43132,58.05392,55.80278,56.09482,55.42144,53.7001,52.60912,53.30114,55.18943,51.79997,52.01376,51.79318,72.31679,59.44969,50.81022,51.7036,52.2381,50.29023,49.48116,48.73926
45.77392,59.51746,57.94611,57.83565,58.91808,57.13745,60.68219,57.47091,61.1808,56.79223,57.26749,56.87081,56.69895,55.45951,52.77976,54.25884,55.20152,51.65267,50.66487,50.27079,63.87957,56.48151,52.41744,53.03003,51.82453,51.53909,49.43632,50.0596
45.97692,55.93677,56.26211,57.12639,57.07453,55.0589,59.17453,57.24263,58.68177,55.48826,55.54835,52.82697,53.88485,53.20344,51.85947,51.35925,51.31445,51.85589,48.89903,48.33742,56.17197,49.54056,49.72488,50.6964,51.46609,51.47205,49.44733,49.2854
46.17992,59.46032,58.82977,60.17343,57.75368,57.31775,59.5348,59.43023,58.08387,56.61223,59.58744,56.58076,57.69067,56.45618,53.70316,54.41477,53.58634,53.20281,51.37727,51.77156,54.86201,53.23752,51.24595,50.79762,50.50656,53.11257,52.34312,51.58624
46.38292,57.29081,59.05023,59.94057,54.29976,55.75341,56.94987,54.9234,57.13903,57.02003,58.53896,53.9789,54.06136,53.96462,52.65121,50.55356,52.38691,51.53354,51.60983,50.48674,52.78336,51.38816,48.37056,48.51166,49.09149,50.56972,49.46792,50.04573
46.58592,63.14719,64.42305,61.06075,58.07731,60.53212,60.19816,56.3205,58.99502,59.88348,61.39109,58.17351,56.42628,56.19584,55.18574,54.31882,57.20444,55.80902,55.47344,54.09498,54.34716,53.91162,52.65181,51.97742,51.63473,51.90107,52.93783,51.85716
46.78892,58.01466,59.51483,56.30643,54.76997,58.33311,56.92412,54.00785,58.08327,56.77441,58.98517,54.60365,51.95066,51.9671,53.68519,51.81782,53.99308,53.54023,52.89145,53.0856,51.26836,48.60989,50.50698,48.62189,49.68376,48.87916,51.13961,48.48286
46.99192,59.22912,61.91119,55.97323,55.7781,58.54346,54.83605,56.64497,58.80823,55.00739,58.57798,55.28584,51.36392,53.26968,53.00318,51.59396,55.31574,55.10359,53.0583,54.37738,51.20095,49.09078,51.68935,50.03393,48.91581,51.80553,52.86416,50.47213
47.19492,55.64838,57.36289,54.05766,54.513,55.17095,51.53815,54.55472,55.83812,51.33928,54.48633,52.24153,52.62103,51.33509,51.53659,49.12345,55.36295,50.84172,50.43007,53.22231,49.44201,48.10891,48.12027,47.58888,47.35117,50.96348,49.15762,47.51207
47.39792,57.77405,58.52222,54.50485,55.41037,54.18046,52.73245,55.45308,54.64997,51.2441,53.52718,52.02268,53.10972,52.84915,51.92567,49.48961,54.8732,50.83928,48.95001,51.9678,48.8953,48.29385,46.35099,47.0009,45.7893,51.57267,46.8316,46.57433
47.60092,59.15632,57.9205,55.69304,56.44831,54.68008,54.10929,55.00772,55.53367,52.86056,54.31316,51.61897,54.85398,52.26515,54.43892,52.43247,53.78929,52.42583,50.36425,50.78968,49.1809,50.02327,45.89917,47.46889,48.02445,48.8504,45.83819,45.96355
47.80392,61.18133,60.07924,55.6185,54.4982,56.56937,54.62434,55.51803,56.25814,55.38224,55.63663,53.03595,54.01403,54.07394,55.5688,53.78846,50.76221,53.95899,52.55982,51.86705,49.36728,50.63406,47.95253,49.25138,48.16577,47.57518,47.77568,47.37421
48.00692,61.09567,61.91469,57.07792,54.83718,56.67024,54.05547,57.09932,58.37896,55.18256,58.18425,54.56893,55.14542,54.24463,55.30378,53.30573,52.20294,54.54911,53.43542,53.64443,51.87332,52.47194,50.39787,50.46815,48.71657,48.86395,50.25744,50.18355
48.20992,60.21804,61.03056,55.9051,52.73298,54.57682,54.54063,57.49742,55.52908,54.525,56.62955,53.76332,57.43925,53.31455,52.42692,52.69911,51.86283,53.61471,51.77791,54.51165,51.65797,50.29189,50.97696,48.70825,47.65328,50.08056,50.13077,50.10555
48.41292,56.87104,57.49491,53.39423,51.15729,49.95937,52.59027,53.87156,53.45032,50.61076,54.75515,50.04172,52.90414,48.82681,48.89577,50.27384,49.96141,49.66894,49.35088,51.31974,48.11803,47.31687,47.62504,45.5785,45.46483,49.02084,45.97396,48.93051
48.61592,53.84752,53.83194,50.46984,47.83305,47.66536,49.39758,50.47396,48.5754,48.53385,50.02091,45.687,48.96755,45.99855,45.56724,48.7748,48.79549,47.13517,46.88799,47.87047,45.42044,44.34836,46.05373,44.22896,44.33219,46.28876,43.44562,46.74968
48.81892,53.04794,52.04262,49.00956,48.85468,46.69823,49.20529,48.0352,47.51434,48.03716,48.64239,46.06753,45.82795,47.34228,46.40906,47.94447,48.3837,46.87498,47.39661,48.35124,46.02837,44.60735,44.63527,47.52327,44.87543,44.66091,45.26552,44.73874
49.02192,51.47548,51.54225,50.49551,50.20344,49.00757,49.2256,50.1065,47.56697,50.65301,48.61188,48.22773,48.82429,47.56881,46.22742,48.13897,49.13079,47.70292,44.8689,49.71914,49.61053,46.2024,47.86102,47.87996,45.11972,45.67547,47.98071,44.20771
49.22492,54.34529,53.93839,54.02805,54.04973,52.16915,52.15503,51.71699,51.89771,53.868,49.76982,52.16913,51.95765,49.12983,50.28764,50.66299,50.89589,50.24863,48.80516,52.08677,55.05111,49.67317,49.66589,50.52174,48.1796,47.91925,49.30812,46.66087
49.42792,52.91592,54.70508,53.05265,51.99676,53.54511,50.26883,52.77925,51.87116,54.09818,49.83429,52.57183,51.19493,47.24578,49.62551,49.07841,52.23866,49.16566,49.80291,51.88268,55.27854,50.99997,49.44603,48.52465,47.57727,48.90272,48.18705,49.14474
49.63092,52.09159,53.64569,49.51128,49.55162,48.83596,48.25762,50.41736,49.29954,50.80895,46.6046,49.5715,47.56134,44.8426,46.53814,47.64371,50.52263,46.33722,48.56664,48.53854,52.92958,49.76737,46.82397,44.84978,45.95487,45.66497,43.72762,48.32602
49.83392,52.15904,51.13551,47.78901,47.75818,46.24929,48.69886,50.93571,47.74726,49.82974,46.50356,48.33671,48.11241,45.85632,44.56349,46.64487,47.37114,43.93489,45.72766,46.5031,51.29272,50.63694,44.7143,44.73299,43.74848,44.91701,45.21922,48.15142
50.03692,51.25872,49.33661,46.76237,47.95256,45.48325,48.171,49.31996,46.85541,49.48147,46.2956,47.23037,47.2956,44.71306,42.85937,47.42378,45.64498,42.45523,42.12078,45.23763,48.69321,47.88531,44.77067,45.17996,42.43273,42.78728,43.44169,45.45408
50.23992,54.84759,51.75774,51.20151,49.78019,50.31808,51.84378,50.5424,51.14681,51.54309,49.20637,49.15582,48.93839,48.33017,48.10214,49.58308,48.361,46.49452,46.97516,47.65717,52.7961,51.42914,47.53625,51.35208,47.75898,47.20771,48.64989,48.80343
50.44292,51.10776,50.16131,48.82854,46.01688,49.51093,50.43773,49.60289,49.15028,49.52423,49.0746,48.70353,44.9753,45.22338,46.04864,46.27799,46.74389,45.21203,44.59253,45.95538,50.8157,51.05656,51.96074,49.78448,51.26562,48.25975,46.45251,48.64837
50.64592,48.46799,49.33728,51.31105,44.72044,48.40113,49.75894,50.08167,48.57806,48.39041,48.36389,49.07472,44.68369,44.7128,44.81236,43.66367,43.66418,44.18899,44.67409,45.60871,54.94473,54.59649,58.42235,53.04174,57.05902,54.82346,52.98626,54.38552
50.84892,44.37091,46.29335,49.61291,44.07353,45.53616,47.43619,50.53955,45.97172,46.70555,48.52743,49.65514,44.62563,43.63898,41.9655,41.22661,42.00434,42.29588,41.02791,44.73856,56.66303,57.79819,60.86014,56.1943,58.50319,59.7764,56.92946,57.64344
51.05192,45.24814,47.13824,51.28035,48.17938,48.07644,48.65971,50.25453,49.8585,48.65274,51.05983,53.45366,48.83847,44.25195,45.71612,43.90991,44.26766,45.07751,43.77151,47.25566,57.60134,58.99696,60.57535,58.66105,59.17882,62.52096,62.96667,60.94365
51.25492,45.50229,47.8648,51.33644,50.03593,49.87064,48.95521,51.8712,52.59332,50.69484,53.0027,56.10737,50.1456,47.86479,48.02049,48.96924,47.30797,49.43565,44.1292,47.81524,55.71893,56.25893,55.99844,57.01674,55.11709,57.60652,58.87738,57.70103
51.45792,40.41646,46.08178,48.11629,47.63934,49.31341,48.52282,51.4545,51.27536,51.61806,52.57316,53.12742,51.06263,49.47174,47.67052,50.51855,46.59347,49.12977,44.97872,47.11416,48.22266,47.08488,52.17231,50.14516,49.54622,49.86294,52.99839,49.90689
51.66092,39.01575,45.18672,46.98826,48.16488,47.38227,49.36822,52.44063,51.52085,53.77963,53.60379,53.42504,55.23043,55.72378,50.35829,55.67012,49.77476,53.01361,49.44865,48.9732,46.25777,44.00499,50.81376,50.56338,48.69904,47.68322,47.51398,44.93185
51.86392,42.57258,45.85535,46.11792,49.6368,49.43535,52.37737,53.3917,56.43945,55.69613,57.71598,53.96738,61.2123,63.24974,59.55904,63.74623,58.68707,60.92941,59.93885,57.63885,45.51989,43.9713,50.85053,49.55171,49.19907,49.40225,48.92113,45.99534
52.06692,47.35287,46.09974,48.41835,51.12645,51.07162,52.82723,52.42472,61.06735,56.28315,61.60128,57.31978,67.60884,71.29212,72.27961,74.63932,74.2834,74.43511,72.99126,70.10778,47.05601,49.19192,48.39447,49.67525,49.81305,48.86032,49.147,46.54337
52.26992,43.77192,42.40148,46.03711,47.57811,48.87031,49.19217,48.224,57.04592,53.41243,61.37424,54.57496,66.29008,71.71079,74.31884,78.52563,79.72913,78.7393,77.74404,73.73724,44.91381,50.79519,43.94911,44.57765,45.30623,41.88876,44.889,45.42567
52.47292,40.72786,40.17474,47.36414,48.20918,46.93383,47.6709,46.9529,51.99801,51.63026,58.5633,53.56959,64.316,66.6003,70.72383,72.64609,77.56484,74.52325,74.45235,68.86179,45.49531,52.71927,42.70416,42.48161,41.79863,39.59646,42.01213,41.32576
52.67592,39.04327,39.61711,47.212,48.21672,45.19948,47.9317,48.143,48.35782,50.11226,53.645,53.87283,59.76526,58.88417,60.69673,61.93239,64.10984,63.00964,62.01414,59.03541,46.22455,49.07087,42.77312,40.47342,41.38761,39.64123,39.1352,42.06594
52.87892,43.25019,44.83156,50.41422,51.06988,48.66245,51.97278,52.15988,49.93772,50.88145,53.26657,57.23127,57.83933,56.98279,55.73455,56.19793,58.38988,57.93046,55.30288,54.77723,49.40569,47.59145,46.85177,44.75891,44.86025,45.52329,44.94792,46.8437
53.08192,41.67764,44.27749,48.36133,48.25439,46.40722,50.67938,51.60456,49.6197,47.26082,51.67785,54.00408,52.50796,51.63307,49.22175,51.1399,50.35058,51.4828,48.1098,50.66471,47.22438,46.01157,45.54712,44.79199,45.18376,43.30504,42.792,47.98506
53.28492,39.25301,44.59302,47.71173,48.32259,44.9651,49.63138,47.7284,46.91552,46.29431,50.94394,48.87299,48.12216,48.14709,45.71491,48.31714,46.94342,45.80286,46.52001,46.48417,44.101,45.03542,44.58185,44.67517,43.37237,42.19642,42.54497,46.63692
53.48792,35.31108,40.73029,41.81653,43.08877,41.26022,42.71333,42.96229,41.32437,41.42097,44.74811,42.21635,42.73012,39.56291,40.02265,39.96606,40.79325,38.26205,41.31798,40.81863,39.37097,40.1369,39.29939,38.81503,37.34319,37.31378,37.04027,39.44192
53.69092,33.53719,37.43206,38.48566,37.93504,39.33563,38.57057,37.57183,36.18357,38.45385,41.27058,38.77889,39.34443,36.5724,36.75004,35.8087,37.05356,33.89541,37.88898,36.58669,38.39549,35.89148,36.79714,35.25409,34.76546,37.12575,33.70487,35.10666
53.89392,37.283,36.52583,39.20822,37.53009,38.84108,37.96143,36.998,36.39569,37.07941,39.30612,40.10576,38.28367,36.45252,35.18857,36.05866,37.19909,36.06146,36.14506,39.25805,37.79368,36.50131,36.07411,36.24966,34.26688,37.72486,34.96606,35.51117
54.09692,40.3782,38.35015,42.24876,40.01126,40.13314,39.02065,38.78708,39.06016,38.68908,40.55218,40.85377,38.58516,42.03444,36.58739,39.00047,38.56187,37.08414,37.29393,41.44499,40.69451,39.12188,38.64178,37.57277,37.5304,40.25685,35.05126,37.91086
54.29992,41.29013,39.37824,43.55901,41.41571,41.76949,41.22318,40.35215,39.45738,40.17155,39.77276,41.77806,39.46587,43.2416,37.42544,39.37897,41.20003,39.44939,40.07588,43.00943,39.61847,39.38047,40.12005,39.53076,40.45731,39.97961,35.50425,40.00839
54.50292,40.75084,41.57683,42.1924,40.27351,43.59222,42.01479,42.07125,40.26851,42.8134,40.58096,43.05409,40.57573,44.46024,39.2883,39.49012,42.91696,40.16332,41.36721,42.77719,40.87405,39.81193,42.83085,40.84917,42.49858,40.18194,35.44199,41.76247
54.70592,40.18107,41.38906,40.89681,40.99417,42.67903,44.0434,41.92948,40.12208,43.97728,41.01306,42.55988,41.291,41.74754,40.73312,41.00007,42.77706,42.37754,42.60445,45.04567,40.81646,39.31298,41.83735,42.00743,44.06029,40.11832,38.55784,43.78385
54.90892,41.34655,41.41714,39.49345,41.43276,39.52819,44.10449,40.9542,39.97975,44.04557,40.25249,42.31021,41.19426,40.72263,38.29296,41.54692,41.36065,41.36404,41.29356,44.87525,42.22004,40.78215,41.96869,41.06109,43.21078,40.1868,40.71433,43.87409
55.11192,39.09497,38.28334,36.77729,40.03345,35.42481,41.47277,39.65724,38.40335,40.31735,38.17711,37.44403,39.70824,38.81197,36.15563,40.765,37.31911,40.56531,38.13907,42.39523,38.84385,40.13987,37.47167,38.0475,40.70658,38.77802,39.71583,40.13981
55.31492,39.08447,38.23669,36.96413,36.90005,34.72903,40.11292,38.83028,38.83695,41.01812,39.39134,36.47975,38.27165,40.35175,34.74286,37.83877,37.91784,39.30843,38.63101,40.66664,38.62717,41.21401,38.9195,38.52225,38.33251,39.78974,39.51507,39.74476
55.51792,38.44451,37.87282,35.89088,36.37803,36.21052,40.41095,38.32969,39.66849,40.06986,41.71349,36.6795,38.52177,40.06957,38.42156,36.99166,40.38726,40.51847,39.18645,42.59805,40.49292,42.2656,38.22964,39.97691,40.86257,40.9485,40.82475,40.06022
55.72092,41.04654,39.83595,36.94484,37.25909,38.01185,42.84705,38.85579,40.74975,41.10767,45.34667,40.21877,39.37163,41.24877,40.52715,37.4699,44.19485,39.2715,42.39245,44.0814,47.2786,43.89179,44.09472,42.80029,44.26866,43.51448,43.87217,43.1859
55.92392,38.71664,39.37112,36.09908,38.29066,38.70893,41.64038,39.21184,39.2888,38.55697,41.54277,39.28094,40.1795,38.63389,40.9541,38.17004,42.2332,38.45585,40.47503,43.68737,48.68725,43.5945,43.57969,42.11133,45.10067,44.3992,44.1631,42.88462
56.12692,37.85245,38.68005,34.26472,35.50147,37.2627,38.39943,38.04119,36.16284,38.51448,38.66776,35.92964,37.78941,37.52519,39.42975,38.40243,38.33126,37.12007,39.3778,40.61652,45.58654,40.38419,41.92467,40.46362,43.15552,43.08188,43.35814,42.64679
56.32992,37.65088,40.01486,35.80679,34.72905,37.25636,36.81443,38.88703,35.83623,39.50382,36.5059,36.45805,39.33131,37.98115,39.49066,37.53835,37.23686,39.14935,39.46444,41.53305,43.93177,40.45591,40.70764,40.51885,41.39025,41.86988,42.92462,42.61226
56.53292,38.03207,37.3506,34.72594,31.20458,35.46056,34.59806,36.65487,34.04288,38.60008,36.30864,36.4917,37.03982,37.06801,38.36196,37.74451,37.10368,38.04474,36.91167,38.8613,40.82574,39.08577,40.57817,38.42691,38.99585,38.94253,41.1328,40.40391
56.73592,43.33655,43.10494,39.57528,37.70185,38.56435,39.10996,40.83869,38.5478,39.81694,39.73883,42.52535,41.25183,41.56877,42.44433,42.64034,42.34011,42.80099,40.84726,41.31039,44.25041,43.2952,46.43346,41.28373,41.82055,41.26194,45.03764,44.31258
56.93892,44.02769,41.16054,37.88025,37.60969,40.02644,37.6724,40.49596,37.54719,38.97667,39.15525,41.45886,38.78176,38.93619,41.35059,42.61138,42.08281,41.86796,39.85972,39.2669,43.37474,42.82836,44.70905,41.1612,40.7633,39.91478,43.08959,42.44952
57.14192,43.67174,41.93804,37.43843,38.95421,39.95192,39.16251,39.53277,37.63033,38.65022,38.20807,40.81509,40.63459,39.89566,41.31912,41.04692,42.00322,40.89702,41.70152,40.57178,43.07232,43.35572,45.05533,40.9033,40.95236,39.69736,41.80629,43.02207
57.34492,36.86982,37.06506,32.89877,33.61799,35.56451,36.00366,35.7562,34.79805,36.06359,35.10052,36.08259,36.88211,36.47171,36.45515,35.38567,37.2208,36.6475,37.57888,37.33082,40.47084,39.34011,39.57456,36.50808,35.94783,36.46439,35.29028,35.97694
57.54792,34.40383,36.77296,31.90581,32.81243,33.37112,36.05015,35.21254,33.85733,33.79053,33.92203,35.23339,36.70837,35.99467,35.61479,36.07399,35.73495,35.85187,36.54113,36.99661,38.30106,37.71334,38.16271,34.53269,36.0025,36.72305,36.36407,34.53169
57.75092,35.52156,38.28201,33.30672,36.30982,34.46879,36.95354,35.23988,35.15396,35.30163,35.8891,36.74546,35.11978,36.27545,36.14469,36.70813,37.6831,38.19571,36.11902,36.41386,38.26725,38.19753,37.44189,35.5305,40.88589,37.75315,38.04556,36.19488
57.95392,38.71198,38.81847,36.04053,37.63798,37.17392,38.20041,36.34814,35.78858,36.38088,36.57973,37.72105,36.8527,37.84117,36.4206,38.24148,39.14586,38.17344,37.00027,37.91785,37.70625,40.51218,38.06332,39.08944,42.96821,38.94506,43.20059,41.11435
58.15692,38.5896,37.81254,34.65595,38.2405,37.17101,37.75117,33.78689,35.4639,37.24622,37.35384,37.04492,36.76409,38.43925,35.60846,37.07129,38.87652,37.44536,37.29151,37.67177,38.71482,41.44504,40.1574,39.74212,42.9512,40.34871,42.61555,44.5118
58.35992,36.06661,34.65807,32.48517,35.02314,35.40992,35.70688,33.75825,33.33557,35.66665,37.23592,35.95861,36.16782,36.5,35.59112,36.18566,36.75138,35.88279,36.70146,36.54422,37.21114,39.41603,40.37394,39.56763,38.34607,37.12373,41.10671,40.43512
58.56292,36.67325,36.09236,33.22394,37.16439,36.26976,36.09669,35.31937,35.85193,37.64062,40.24718,38.4294,37.8255,36.26699,38.06656,38.17499,37.43274,38.07538,39.29208,39.42258,39.8682,40.49946,43.49882,40.30123,40.79949,40.43802,40.17127,42.16553
58.76592,34.8763,34.47952,32.27383,34.72783,36.01283,35.18742,36.08982,36.01262,34.85864,39.07003,36.54854,38.33126,34.34958,37.00526,37.23019,35.19205,35.70339,38.0645,38.09998,37.81373,38.43181,40.98273,39.30034,40.07201,39.56562,37.82807,39.47081
58.96892,35.29381,34.60326,32.84065,32.6574,35.97419,35.18568,35.91157,35.61493,33.8646,37.02734,36.58645,38.39948,34.93807,35.42894,36.33619,33.90072,35.5644,36.74925,37.48271,38.34022,36.59867,39.93493,39.64564,39.50246,40.52226,36.58432,40.29264
59.17192,35.31852,32.25381,31.38682,31.33096,34.89047,34.9456,35.43845,33.59263,32.55749,35.66346,34.47136,37.34907,34.48073,34.10851,35.30623,33.8305,33.97295,34.41679,35.14894,37.47334,35.37437,39.25317,38.96187,37.25849,39.10261,37.26689,38.47091
59.37492,37.45746,33.25886,33.27698,33.4473,35.43507,35.68695,36.80038,34.2058,34.78463,37.72206,36.91542,37.17966,36.56808,34.7459,37.63256,37.36221,38.1924,35.54769,35.92094,39.81517,36.52605,40.55594,40.66715,38.68784,39.11761,39.61622,39.91962
59.57792,36.96121,35.59478,34.88843,35.15628,36.70381,36.40565,37.70344,36.06634,35.8423,38.73887,36.02603,39.02021,37.57287,33.64657,39.09359,38.15042,38.55562,36.41911,36.84986,41.85171,39.0406,41.62907,39.95441,40.40697,39.75995,41.2399,40.5011
59.78092,33.85498,36.43858,36.90398,34.50906,38.15292,35.22771,37.48104,34.36276,35.49541,37.85737,35.81938,36.96767,37.16083,32.62719,37.14526,36.70764,39.32939,35.24471,36.41424,41.47538,37.57394,41.87605,37.85976,39.71889,37.30258,38.45662,39.66526
59.98392,36.31169,24.06257,44.93625,28.43801,27.43801,25.43684,30.74971,24.18772,35.12397,29.18772,42.12397,27.06257,18.62574,31.87485,31.37544,26.18772,36.68713,31.37426,45.68596,45.93625,33.62456,48.87368,31.18772,34.06257,29.31287,28.50059,35.81228